File: example/project/CLSOx5_2.txt
Time	Temperature	Weight	Weight	Heat Flow
min	°C	%	µg	mW
0.003		100.0007	25090.2
0.012		100.0015	25090.4
0.020		100.0022	25090.6
0.028		100.0030	25090.8
0.037		100.0037	25091
0.045	18.74	100.0043	25091.1	-16.204
0.053	18.74	100.0049	25091.3	-16.205
0.062	18.74	100.0054	25091.4	-16.207
0.070	18.74	100.0059	25091.5	-16.208
0.078	18.74	100.0063	25091.6	-16.210
0.087	18.74	100.0066	25091.7	-16.213
0.095	18.74	100.0069	25091.8	-16.216
0.103	18.74	100.0071	25091.8	-16.219
0.112	18.74	100.0073	25091.9	-16.222
0.120	18.74	100.0074	25091.9	-16.226
0.128	18.74	100.0075	25091.9	-16.229
0.137	18.74	100.0074	25091.9	-16.234
0.145	18.74	100.0074	25091.9	-16.239
0.153	18.75	100.0072	25091.9	-16.244
0.162	18.75	100.0070	25091.8	-16.250
0.170	18.75	100.0067	25091.7	-16.256
0.178	18.75	100.0063	25091.6	-16.262
0.187	18.75	100.0059	25091.5	-16.268
0.195	18.75	100.0053	25091.4	-16.274
0.203	18.75	100.0047	25091.2	-16.280
0.212	18.76	100.0041	25091.1	-16.287
0.220	18.76	100.0034	25090.9	-16.294
0.228	18.76	100.0026	25090.7	-16.300
0.237	18.77	100.0018	25090.5	-16.307
0.245	18.77	100.0008	25090.3	-16.314
0.253	18.77	99.9998	25090	-16.322
0.262	18.78	99.9988	25089.8	-16.328
0.270	18.78	99.9976	25089.5	-16.335
0.278	18.79	99.9964	25089.1	-16.342
0.287	18.80	99.9950	25088.8	-16.349
0.295	18.80	99.9936	25088.5	-16.356
0.303	18.81	99.9921	25088.1	-16.362
0.312	18.82	99.9904	25087.7	-16.368
0.320	18.83	99.9887	25087.2	-16.374
0.328	18.84	99.9869	25086.8	-16.379
0.337	18.85	99.9850	25086.3	-16.384
0.345	18.86	99.9830	25085.8	-16.389
0.353	18.87	99.9810	25085.3	-16.393
0.362	18.89	99.9790	25084.8	-16.398
0.370	18.90	99.9770	25084.3	-16.402
0.378	18.92	99.9749	25083.8	-16.406
0.387	18.93	99.9728	25083.2	-16.409
0.395	18.95	99.9707	25082.7	-16.413
0.403	18.96	99.9686	25082.2	-16.416
0.412	18.98	99.9665	25081.7	-16.419
0.420	19.00	99.9645	25081.1	-16.422
0.428	19.02	99.9624	25080.6	-16.424
0.437	19.04	99.9604	25080.1	-16.426
0.445	19.06	99.9583	25079.6	-16.428
0.453	19.09	99.9563	25079.1	-16.430
0.462	19.11	99.9543	25078.6	-16.432
0.470	19.13	99.9523	25078.1	-16.434
0.478	19.16	99.9504	25077.6	-16.436
0.487	19.18	99.9485	25077.1	-16.437
0.495	19.21	99.9466	25076.6	-16.439
0.503	19.24	99.9447	25076.2	-16.440
0.512	19.26	99.9428	25075.7	-16.441
0.520	19.29	99.9410	25075.3	-16.443
0.528	19.32	99.9392	25074.8	-16.444
0.537	19.35	99.9374	25074.3	-16.445
0.545	19.39	99.9356	25073.9	-16.446
0.553	19.42	99.9339	25073.5	-16.447
0.562	19.45	99.9321	25073	-16.448
0.570	19.49	99.9304	25072.6	-16.448
0.578	19.52	99.9287	25072.2	-16.448
0.587	19.56	99.9271	25071.8	-16.448
0.595	19.60	99.9254	25071.3	-16.448
0.603	19.64	99.9238	25070.9	-16.448
0.612	19.67	99.9222	25070.5	-16.448
0.620	19.72	99.9206	25070.1	-16.447
0.628	19.76	99.9190	25069.7	-16.446
0.637	19.80	99.9174	25069.3	-16.444
0.645	19.84	99.9159	25069	-16.442
0.653	19.88	99.9144	25068.6	-16.438
0.662	19.93	99.9128	25068.2	-16.435
0.670	19.97	99.9113	25067.8	-16.430
0.678	20.02	99.9099	25067.4	-16.425
0.687	20.07	99.9084	25067.1	-16.419
0.695	20.12	99.9070	25066.7	-16.412
0.703	20.16	99.9055	25066.4	-16.405
0.712	20.21	99.9041	25066	-16.398
0.720	20.26	99.9027	25065.7	-16.390
0.728	20.31	99.9013	25065.3	-16.383
0.737	20.37	99.9000	25065	-16.375
0.745	20.42	99.8986	25064.6	-16.366
0.753	20.47	99.8973	25064.3	-16.357
0.762	20.53	99.8959	25063.9	-16.348
0.770	20.58	99.8946	25063.6	-16.338
0.778	20.64	99.8933	25063.3	-16.328
0.787	20.69	99.8920	25063	-16.318
0.795	20.75	99.8907	25062.6	-16.307
0.803	20.81	99.8895	25062.3	-16.296
0.812	20.87	99.8882	25062	-16.284
0.820	20.93	99.8870	25061.7	-16.272
0.828	20.99	99.8857	25061.4	-16.260
0.837	21.05	99.8845	25061.1	-16.247
0.845	21.12	99.8833	25060.8	-16.235
0.853	21.18	99.8821	25060.5	-16.223
0.862	21.24	99.8809	25060.2	-16.210
0.870	21.31	99.8797	25059.9	-16.197
0.878	21.37	99.8786	25059.6	-16.184
0.887	21.44	99.8774	25059.3	-16.170
0.895	21.51	99.8763	25059	-16.156
0.903	21.57	99.8751	25058.7	-16.141
0.912	21.64	99.8740	25058.4	-16.126
0.920	21.71	99.8728	25058.2	-16.111
0.928	21.78	99.8717	25057.9	-16.095
0.937	21.85	99.8706	25057.6	-16.078
0.945	21.92	99.8695	25057.3	-16.060
0.953	21.99	99.8684	25057	-16.042
0.962	22.07	99.8673	25056.8	-16.024
0.970	22.14	99.8662	25056.5	-16.005
0.978	22.21	99.8651	25056.2	-15.986
0.987	22.29	99.8641	25055.9	-15.967
0.995	22.36	99.8630	25055.7	-15.948
1.003	22.44	99.8619	25055.4	-15.928
1.012	22.51	99.8609	25055.1	-15.908
1.020	22.59	99.8598	25054.9	-15.888
1.028	22.67	99.8587	25054.6	-15.868
1.037	22.74	99.8577	25054.4	-15.847
1.045	22.82	99.8566	25054.1	-15.825
1.053	22.90	99.8556	25053.8	-15.803
1.062	22.98	99.8545	25053.6	-15.781
1.070	23.06	99.8535	25053.3	-15.757
1.078	23.14	99.8524	25053	-15.733
1.087	23.22	99.8514	25052.8	-15.708
1.095	23.30	99.8503	25052.5	-15.682
1.103	23.39	99.8493	25052.2	-15.657
1.112	23.47	99.8482	25052	-15.630
1.120	23.55	99.8472	25051.7	-15.602
1.128	23.64	99.8461	25051.4	-15.573
1.137	23.72	99.8450	25051.2	-15.543
1.145	23.81	99.8440	25050.9	-15.513
1.153	23.89	99.8429	25050.6	-15.482
1.162	23.98	99.8419	25050.4	-15.451
1.170	24.06	99.8408	25050.1	-15.418
1.178	24.15	99.8397	25049.8	-15.385
1.187	24.24	99.8387	25049.6	-15.352
1.195	24.33	99.8376	25049.3	-15.317
1.203	24.42	99.8365	25049	-15.282
1.212	24.50	99.8354	25048.8	-15.247
1.220	24.59	99.8343	25048.5	-15.211
1.228	24.68	99.8332	25048.2	-15.175
1.237	24.77	99.8321	25047.9	-15.139
1.245	24.87	99.8310	25047.7	-15.102
1.253	24.96	99.8299	25047.4	-15.063
1.262	25.05	99.8288	25047.1	-15.025
1.270	25.14	99.8277	25046.8	-14.986
1.278	25.23	99.8265	25046.5	-14.947
1.287	25.32	99.8254	25046.2	-14.907
1.295	25.42	99.8242	25046	-14.866
1.303	25.51	99.8231	25045.7	-14.825
1.312	25.60	99.8219	25045.4	-14.783
1.320	25.70	99.8207	25045.1	-14.740
1.328	25.79	99.8196	25044.8	-14.698
1.337	25.89	99.8184	25044.5	-14.655
1.345	25.98	99.8172	25044.2	-14.612
1.353	26.08	99.8160	25043.9	-14.568
1.362	26.17	99.8148	25043.6	-14.523
1.370	26.27	99.8135	25043.3	-14.479
1.378	26.37	99.8123	25043	-14.434
1.387	26.46	99.8111	25042.7	-14.389
1.395	26.56	99.8098	25042.3	-14.344
1.403	26.66	99.8085	25042	-14.298
1.412	26.75	99.8073	25041.7	-14.252
1.420	26.85	99.8060	25041.4	-14.205
1.428	26.95	99.8047	25041.1	-14.158
1.437	27.05	99.8034	25040.7	-14.110
1.445	27.15	99.8021	25040.4	-14.063
1.453	27.25	99.8007	25040.1	-14.015
1.462	27.34	99.7994	25039.7	-13.966
1.470	27.44	99.7980	25039.4	-13.918
1.478	27.54	99.7967	25039	-13.868
1.487	27.64	99.7953	25038.7	-13.818
1.495	27.74	99.7939	25038.3	-13.768
1.503	27.84	99.7925	25038	-13.717
1.512	27.94	99.7911	25037.6	-13.667
1.520	28.05	99.7897	25037.3	-13.616
1.528	28.15	99.7883	25036.9	-13.565
1.537	28.25	99.7868	25036.6	-13.514
1.545	28.35	99.7854	25036.2	-13.463
1.553	28.45	99.7839	25035.8	-13.411
1.562	28.55	99.7825	25035.5	-13.359
1.570	28.65	99.7810	25035.1	-13.307
1.578	28.76	99.7795	25034.7	-13.254
1.587	28.86	99.7780	25034.4	-13.201
1.595	28.96	99.7765	25034	-13.148
1.603	29.06	99.7749	25033.6	-13.095
1.612	29.17	99.7734	25033.2	-13.041
1.620	29.27	99.7719	25032.8	-12.987
1.628	29.37	99.7703	25032.4	-12.933
1.637	29.47	99.7687	25032	-12.879
1.645	29.58	99.7671	25031.6	-12.826
1.653	29.68	99.7655	25031.2	-12.771
1.662	29.78	99.7639	25030.8	-12.717
1.670	29.89	99.7623	25030.4	-12.663
1.678	29.99	99.7607	25030	-12.609
1.687	30.09	99.7590	25029.6	-12.553
1.695	30.20	99.7574	25029.2	-12.499
1.703	30.30	99.7557	25028.8	-12.445
1.712	30.40	99.7540	25028.3	-12.389
1.720	30.51	99.7524	25027.9	-12.335
1.728	30.61	99.7507	25027.5	-12.279
1.737	30.72	99.7490	25027.1	-12.225
1.745	30.82	99.7472	25026.6	-12.170
1.753	30.92	99.7455	25026.2	-12.115
1.762	31.03	99.7438	25025.8	-12.060
1.770	31.13	99.7420	25025.3	-12.006
1.778	31.23	99.7402	25024.9	-11.950
1.787	31.34	99.7384	25024.4	-11.895
1.795	31.44	99.7366	25024	-11.840
1.803	31.55	99.7349	25023.5	-11.784
1.812	31.65	99.7330	25023.1	-11.729
1.820	31.75	99.7312	25022.6	-11.674
1.828	31.86	99.7294	25022.2	-11.619
1.837	31.96	99.7275	25021.7	-11.563
1.845	32.07	99.7257	25021.2	-11.508
1.853	32.17	99.7238	25020.8	-11.453
1.862	32.27	99.7219	25020.3	-11.398
1.870	32.38	99.7200	25019.8	-11.343
1.878	32.48	99.7181	25019.3	-11.288
1.887	32.59	99.7162	25018.8	-11.233
1.895	32.69	99.7142	25018.4	-11.177
1.903	32.79	99.7123	25017.9	-11.121
1.912	32.90	99.7103	25017.4	-11.066
1.920	33.00	99.7084	25016.9	-11.010
1.928	33.11	99.7064	25016.4	-10.954
1.937	33.21	99.7044	25015.9	-10.898
1.945	33.31	99.7024	25015.4	-10.842
1.953	33.42	99.7004	25014.9	-10.786
1.962	33.52	99.6983	25014.4	-10.730
1.970	33.62	99.6963	25013.9	-10.674
1.978	33.73	99.6942	25013.3	-10.618
1.987	33.83	99.6922	25012.8	-10.562
1.995	33.93	99.6901	25012.3	-10.506
2.003	34.04	99.6880	25011.8	-10.450
2.012	34.14	99.6859	25011.2	-10.394
2.020	34.24	99.6837	25010.7	-10.339
2.028	34.35	99.6816	25010.2	-10.284
2.037	34.45	99.6795	25009.6	-10.228
2.045	34.55	99.6773	25009.1	-10.174
2.053	34.65	99.6751	25008.5	-10.119
2.062	34.76	99.6729	25008	-10.064
2.070	34.86	99.6707	25007.4	-10.009
2.078	34.96	99.6685	25006.9	-9.954
2.087	35.06	99.6663	25006.3	-9.899
2.095	35.17	99.6640	25005.8	-9.844
2.103	35.27	99.6618	25005.2	-9.788
2.112	35.37	99.6595	25004.6	-9.733
2.120	35.47	99.6573	25004.1	-9.679
2.128	35.57	99.6550	25003.5	-9.624
2.137	35.67	99.6527	25002.9	-9.570
2.145	35.77	99.6504	25002.3	-9.515
2.153	35.88	99.6480	25001.8	-9.461
2.162	35.98	99.6457	25001.2	-9.407
2.170	36.08	99.6434	25000.6	-9.353
2.178	36.18	99.6410	25000	-9.299
2.187	36.28	99.6386	24999.4	-9.245
2.195	36.38	99.6362	24998.8	-9.190
2.203	36.48	99.6338	24998.2	-9.136
2.212	36.58	99.6314	24997.6	-9.081
2.220	36.68	99.6290	24997	-9.027
2.228	36.78	99.6265	24996.4	-8.973
2.237	36.88	99.6241	24995.7	-8.919
2.245	36.98	99.6216	24995.1	-8.865
2.253	37.08	99.6191	24994.5	-8.811
2.262	37.18	99.6166	24993.9	-8.758
2.270	37.28	99.6141	24993.2	-8.705
2.278	37.38	99.6116	24992.6	-8.652
2.287	37.48	99.6091	24992	-8.599
2.295	37.58	99.6065	24991.3	-8.546
2.303	37.68	99.6040	24990.7	-8.493
2.312	37.78	99.6014	24990	-8.441
2.320	37.88	99.5988	24989.4	-8.388
2.328	37.97	99.5962	24988.7	-8.336
2.337	38.07	99.5936	24988.1	-8.284
2.345	38.17	99.5910	24987.4	-8.231
2.353	38.27	99.5883	24986.8	-8.179
2.362	38.37	99.5857	24986.1	-8.127
2.370	38.47	99.5830	24985.4	-8.075
2.378	38.56	99.5803	24984.8	-8.023
2.387	38.66	99.5776	24984.1	-7.971
2.395	38.76	99.5749	24983.4	-7.919
2.403	38.86	99.5722	24982.7	-7.867
2.412	38.95	99.5695	24982	-7.815
2.420	39.05	99.5667	24981.3	-7.763
2.428	39.15	99.5639	24980.6	-7.711
2.437	39.25	99.5612	24980	-7.659
2.445	39.34	99.5584	24979.3	-7.608
2.453	39.44	99.5556	24978.5	-7.558
2.462	39.53	99.5527	24977.8	-7.508
2.470	39.63	99.5499	24977.1	-7.457
2.478	39.73	99.5471	24976.4	-7.407
2.487	39.82	99.5442	24975.7	-7.358
2.495	39.92	99.5413	24975	-7.308
2.503	40.01	99.5384	24974.3	-7.258
2.512	40.11	99.5355	24973.5	-7.208
2.520	40.20	99.5326	24972.8	-7.158
2.528	40.30	99.5297	24972.1	-7.109
2.537	40.39	99.5268	24971.3	-7.059
2.545	40.49	99.5238	24970.6	-7.010
2.553	40.58	99.5209	24969.8	-6.961
2.562	40.68	99.5179	24969.1	-6.912
2.570	40.77	99.5149	24968.3	-6.863
2.578	40.87	99.5119	24967.6	-6.815
2.587	40.96	99.5089	24966.8	-6.766
2.595	41.06	99.5058	24966.1	-6.718
2.603	41.15	99.5028	24965.3	-6.670
2.612	41.24	99.4997	24964.5	-6.622
2.620	41.34	99.4966	24963.8	-6.574
2.628	41.43	99.4935	24963	-6.527
2.637	41.52	99.4904	24962.2	-6.479
2.645	41.62	99.4873	24961.4	-6.431
2.653	41.71	99.4842	24960.6	-6.383
2.662	41.80	99.4810	24959.8	-6.335
2.670	41.89	99.4778	24959	-6.288
2.678	41.99	99.4747	24958.2	-6.240
2.687	42.08	99.4715	24957.4	-6.193
2.695	42.17	99.4682	24956.6	-6.146
2.703	42.26	99.4650	24955.8	-6.099
2.712	42.36	99.4618	24955	-6.052
2.720	42.45	99.4585	24954.2	-6.006
2.728	42.54	99.4553	24953.4	-5.960
2.737	42.63	99.4520	24952.6	-5.914
2.745	42.72	99.4487	24951.7	-5.868
2.753	42.81	99.4454	24950.9	-5.823
2.762	42.91	99.4421	24950.1	-5.777
2.770	43.00	99.4387	24949.2	-5.732
2.778	43.09	99.4354	24948.4	-5.686
2.787	43.18	99.4320	24947.5	-5.640
2.795	43.27	99.4286	24946.7	-5.595
2.803	43.36	99.4252	24945.8	-5.550
2.812	43.45	99.4218	24945	-5.504
2.820	43.54	99.4184	24944.1	-5.459
2.828	43.63	99.4150	24943.3	-5.414
2.837	43.72	99.4115	24942.4	-5.368
2.845	43.81	99.4080	24941.5	-5.324
2.853	43.90	99.4046	24940.7	-5.279
2.862	43.99	99.4011	24939.8	-5.234
2.870	44.08	99.3975	24938.9	-5.190
2.878	44.17	99.3940	24938	-5.146
2.887	44.26	99.3905	24937.1	-5.102
2.895	44.35	99.3869	24936.2	-5.058
2.903	44.44	99.3834	24935.3	-5.015
2.912	44.53	99.3798	24934.4	-4.973
2.920	44.61	99.3762	24933.5	-4.929
2.928	44.70	99.3726	24932.6	-4.886
2.937	44.79	99.3689	24931.7	-4.843
2.945	44.88	99.3653	24930.8	-4.799
2.953	44.97	99.3616	24929.9	-4.756
2.962	45.06	99.3579	24929	-4.714
2.970	45.15	99.3542	24928	-4.672
2.978	45.24	99.3504	24927.1	-4.630
2.987	45.32	99.3467	24926.1	-4.588
2.995	45.41	99.3428	24925.2	-4.545
3.003	45.50	99.3390	24924.2	-4.504
3.012	45.59	99.3351	24923.2	-4.462
3.020	45.68	99.3311	24922.2	-4.421
3.028	45.76	99.3272	24921.2	-4.380
3.037	45.85	99.3232	24920.2	-4.339
3.045	45.94	99.3192	24919.2	-4.297
3.053	46.03	99.3152	24918.2	-4.256
3.062	46.11	99.3111	24917.2	-4.214
3.070	46.20	99.3070	24916.2	-4.172
3.078	46.29	99.3030	24915.2	-4.131
3.087	46.38	99.2989	24914.1	-4.089
3.095	46.46	99.2947	24913.1	-4.048
3.103	46.55	99.2905	24912.1	-4.008
3.112	46.64	99.2864	24911	-3.968
3.120	46.72	99.2822	24910	-3.928
3.128	46.81	99.2779	24908.9	-3.888
3.137	46.90	99.2737	24907.8	-3.848
3.145	46.98	99.2694	24906.7	-3.808
3.153	47.07	99.2651	24905.7	-3.768
3.162	47.16	99.2608	24904.6	-3.729
3.170	47.24	99.2564	24903.5	-3.689
3.178	47.33	99.2520	24902.4	-3.649
3.187	47.42	99.2477	24901.3	-3.609
3.195	47.50	99.2432	24900.2	-3.570
3.203	47.59	99.2388	24899.1	-3.530
3.212	47.68	99.2344	24898	-3.490
3.220	47.76	99.2299	24896.8	-3.450
3.228	47.85	99.2253	24895.7	-3.411
3.237	47.93	99.2208	24894.6	-3.371
3.245	48.02	99.2162	24893.4	-3.332
3.253	48.11	99.2116	24892.2	-3.293
3.262	48.19	99.2069	24891.1	-3.255
3.270	48.28	99.2022	24889.9	-3.216
3.278	48.36	99.1975	24888.7	-3.177
3.287	48.45	99.1928	24887.5	-3.138
3.295	48.54	99.1881	24886.3	-3.099
3.303	48.62	99.1833	24885.2	-3.061
3.312	48.71	99.1786	24884	-3.022
3.320	48.79	99.1739	24882.8	-2.984
3.328	48.88	99.1691	24881.6	-2.946
3.337	48.96	99.1644	24880.4	-2.908
3.345	49.05	99.1597	24879.2	-2.870
3.353	49.13	99.1549	24878	-2.832
3.362	49.22	99.1501	24876.8	-2.795
3.370	49.30	99.1453	24875.6	-2.758
3.378	49.39	99.1405	24874.4	-2.721
3.387	49.47	99.1357	24873.2	-2.683
3.395	49.56	99.1309	24872	-2.646
3.403	49.64	99.1260	24870.8	-2.610
3.412	49.73	99.1211	24869.6	-2.573
3.420	49.81	99.1162	24868.3	-2.536
3.428	49.90	99.1113	24867.1	-2.499
3.437	49.98	99.1063	24865.8	-2.462
3.445	50.07	99.1014	24864.6	-2.425
3.453	50.15	99.0964	24863.3	-2.388
3.462	50.24	99.0914	24862.1	-2.352
3.470	50.32	99.0863	24860.8	-2.316
3.478	50.41	99.0812	24859.5	-2.280
3.487	50.49	99.0761	24858.3	-2.244
3.495	50.57	99.0710	24857	-2.207
3.503	50.66	99.0659	24855.7	-2.172
3.512	50.74	99.0608	24854.4	-2.135
3.520	50.83	99.0557	24853.1	-2.100
3.528	50.91	99.0507	24851.9	-2.064
3.537	51.00	99.0456	24850.6	-2.027
3.545	51.08	99.0405	24849.3	-1.991
3.553	51.17	99.0354	24848	-1.955
3.562	51.25	99.0303	24846.8	-1.918
3.570	51.34	99.0252	24845.5	-1.883
3.578	51.42	99.0200	24844.2	-1.847
3.587	51.51	99.0148	24842.9	-1.811
3.595	51.59	99.0096	24841.6	-1.775
3.603	51.68	99.0044	24840.3	-1.739
3.612	51.76	98.9991	24838.9	-1.703
3.620	51.85	98.9939	24837.6	-1.667
3.628	51.93	98.9886	24836.3	-1.632
3.637	52.01	98.9833	24835	-1.597
3.645	52.10	98.9780	24833.6	-1.562
3.653	52.18	98.9727	24832.3	-1.525
3.662	52.27	98.9674	24831	-1.490
3.670	52.35	98.9622	24829.7	-1.454
3.678	52.43	98.9569	24828.3	-1.419
3.687	52.52	98.9516	24827	-1.385
3.695	52.60	98.9463	24825.7	-1.350
3.703	52.69	98.9410	24824.4	-1.315
3.712	52.77	98.9357	24823	-1.280
3.720	52.86	98.9305	24821.7	-1.245
3.728	52.94	98.9252	24820.4	-1.210
3.737	53.03	98.9199	24819.1	-1.176
3.745	53.11	98.9146	24817.7	-1.141
3.753	53.19	98.9093	24816.4	-1.107
3.762	53.28	98.9039	24815.1	-1.073
3.770	53.36	98.8986	24813.7	-1.038
3.778	53.45	98.8932	24812.4	-1.004
3.787	53.53	98.8878	24811	-0.969
3.795	53.62	98.8824	24809.6	-0.935
3.803	53.70	98.8769	24808.3	-0.901
3.812	53.78	98.8715	24806.9	-0.866
3.820	53.87	98.8660	24805.5	-0.831
3.828	53.95	98.8606	24804.2	-0.797
3.837	54.04	98.8551	24802.8	-0.763
3.845	54.12	98.8496	24801.4	-0.728
3.853	54.21	98.8441	24800	-0.694
3.862	54.29	98.8387	24798.7	-0.659
3.870	54.38	98.8332	24797.3	-0.625
3.878	54.46	98.8278	24796	-0.591
3.887	54.54	98.8223	24794.6	-0.557
3.895	54.63	98.8169	24793.2	-0.523
3.903	54.71	98.8114	24791.8	-0.490
3.912	54.80	98.8059	24790.5	-0.457
3.920	54.88	98.8004	24789.1	-0.423
3.928	54.97	98.7948	24787.7	-0.389
3.937	55.05	98.7893	24786.3	-0.355
3.945	55.14	98.7837	24784.9	-0.322
3.953	55.22	98.7781	24783.5	-0.289
3.962	55.31	98.7726	24782.1	-0.255
3.970	55.39	98.7670	24780.7	-0.222
3.978	55.47	98.7615	24779.3	-0.188
3.987	55.56	98.7559	24777.9	-0.155
3.995	55.64	98.7503	24776.5	-0.122
4.003	55.73	98.7448	24775.1	-0.089
4.012	55.81	98.7393	24773.7	-0.056
4.020	55.90	98.7338	24772.4	-0.023
4.028	55.98	98.7283	24771	0.010
4.037	56.07	98.7227	24769.6	0.043
4.045	56.15	98.7171	24768.2	0.076
4.053	56.23	98.7114	24766.8	0.109
4.062	56.32	98.7058	24765.3	0.142
4.070	56.40	98.7001	24763.9	0.175
4.078	56.49	98.6944	24762.5	0.208
4.087	56.57	98.6887	24761	0.241
4.095	56.66	98.6830	24759.6	0.274
4.103	56.74	98.6772	24758.2	0.307
4.112	56.83	98.6714	24756.7	0.340
4.120	56.91	98.6657	24755.3	0.373
4.128	57.00	98.6600	24753.9	0.406
4.137	57.08	98.6543	24752.4	0.440
4.145	57.17	98.6486	24751	0.473
4.153	57.25	98.6429	24749.6	0.506
4.162	57.34	98.6372	24748.1	0.540
4.170	57.42	98.6315	24746.7	0.573
4.178	57.51	98.6258	24745.3	0.607
4.187	57.59	98.6200	24743.8	0.640
4.195	57.68	98.6143	24742.4	0.673
4.203	57.76	98.6085	24740.9	0.707
4.212	57.85	98.6027	24739.5	0.739
4.220	57.93	98.5969	24738	0.772
4.228	58.02	98.5911	24736.6	0.805
4.237	58.10	98.5853	24735.1	0.838
4.245	58.19	98.5795	24733.6	0.870
4.253	58.27	98.5736	24732.2	0.903
4.262	58.36	98.5678	24730.7	0.936
4.270	58.44	98.5620	24729.3	0.968
4.278	58.53	98.5561	24727.8	1.001
4.287	58.61	98.5503	24726.3	1.033
4.295	58.70	98.5445	24724.9	1.065
4.303	58.78	98.5387	24723.4	1.097
4.312	58.87	98.5329	24721.9	1.130
4.320	58.95	98.5270	24720.5	1.163
4.328	59.04	98.5212	24719	1.196
4.337	59.12	98.5153	24717.6	1.229
4.345	59.21	98.5095	24716.1	1.263
4.353	59.29	98.5037	24714.6	1.296
4.362	59.38	98.4979	24713.2	1.329
4.370	59.47	98.4921	24711.7	1.362
4.378	59.55	98.4862	24710.3	1.395
4.387	59.64	98.4804	24708.8	1.428
4.395	59.72	98.4745	24707.3	1.461
4.403	59.81	98.4687	24705.9	1.494
4.412	59.89	98.4629	24704.4	1.527
4.420	59.98	98.4570	24702.9	1.560
4.428	60.06	98.4511	24701.4	1.592
4.437	60.15	98.4452	24700	1.625
4.445	60.23	98.4393	24698.5	1.657
4.453	60.32	98.4334	24697	1.690
4.462	60.40	98.4275	24695.5	1.723
4.470	60.49	98.4216	24694	1.756
4.478	60.57	98.4157	24692.6	1.788
4.487	60.66	98.4097	24691.1	1.821
4.495	60.74	98.4038	24689.6	1.853
4.503	60.83	98.3979	24688.1	1.885
4.512	60.91	98.3919	24686.6	1.917
4.520	61.00	98.3860	24685.1	1.950
4.528	61.09	98.3800	24683.6	1.983
4.537	61.17	98.3740	24682.1	2.015
4.545	61.26	98.3681	24680.6	2.047
4.553	61.34	98.3621	24679.1	2.081
4.562	61.43	98.3562	24677.6	2.113
4.570	61.52	98.3502	24676.1	2.147
4.578	61.60	98.3443	24674.6	2.180
4.587	61.69	98.3383	24673.1	2.213
4.595	61.78	98.3323	24671.6	2.247
4.603	61.86	98.3264	24670.1	2.279
4.612	61.95	98.3205	24668.7	2.313
4.620	62.03	98.3145	24667.2	2.346
4.628	62.12	98.3086	24665.7	2.379
4.637	62.21	98.3026	24664.2	2.412
4.645	62.29	98.2967	24662.7	2.445
4.653	62.38	98.2907	24661.2	2.478
4.662	62.47	98.2847	24659.7	2.511
4.670	62.55	98.2788	24658.2	2.543
4.678	62.64	98.2728	24656.7	2.577
4.687	62.72	98.2668	24655.2	2.609
4.695	62.81	98.2608	24653.7	2.642
4.703	62.90	98.2548	24652.2	2.674
4.712	62.98	98.2488	24650.7	2.706
4.720	63.07	98.2429	24649.2	2.738
4.728	63.16	98.2369	24647.7	2.770
4.737	63.24	98.2309	24646.2	2.802
4.745	63.33	98.2249	24644.7	2.835
4.753	63.41	98.2189	24643.2	2.867
4.762	63.50	98.2129	24641.7	2.899
4.770	63.59	98.2069	24640.2	2.932
4.778	63.67	98.2009	24638.7	2.965
4.787	63.76	98.1949	24637.1	2.998
4.795	63.84	98.1889	24635.6	3.031
4.803	63.93	98.1828	24634.1	3.064
4.812	64.02	98.1768	24632.6	3.097
4.820	64.10	98.1708	24631.1	3.130
4.828	64.19	98.1647	24629.6	3.163
4.837	64.28	98.1587	24628.1	3.196
4.845	64.36	98.1527	24626.6	3.230
4.853	64.45	98.1467	24625.1	3.263
4.862	64.53	98.1407	24623.5	3.296
4.870	64.62	98.1346	24622	3.330
4.878	64.71	98.1286	24620.5	3.363
4.887	64.79	98.1226	24619	3.397
4.895	64.88	98.1167	24617.5	3.430
4.903	64.97	98.1107	24616	3.462
4.912	65.05	98.1047	24614.5	3.495
4.920	65.14	98.0987	24613	3.528
4.928	65.23	98.0928	24611.5	3.562
4.937	65.31	98.0868	24610	3.595
4.945	65.40	98.0808	24608.5	3.628
4.953	65.49	98.0748	24607	3.661
4.962	65.57	98.0688	24605.5	3.694
4.970	65.66	98.0628	24604	3.727
4.978	65.75	98.0568	24602.5	3.761
4.987	65.83	98.0508	24601	3.795
4.995	65.92	98.0448	24599.5	3.829
5.003	66.01	98.0388	24598	3.862
5.012	66.09	98.0327	24596.5	3.896
5.020	66.18	98.0267	24595	3.930
5.028	66.27	98.0207	24593.5	3.963
5.037	66.35	98.0147	24592	3.996
5.045	66.44	98.0088	24590.5	4.030
5.053	66.53	98.0028	24589	4.063
5.062	66.61	97.9968	24587.5	4.098
5.070	66.70	97.9908	24586	4.131
5.078	66.79	97.9848	24584.4	4.164
5.087	66.88	97.9788	24582.9	4.198
5.095	66.96	97.9729	24581.4	4.232
5.103	67.05	97.9669	24579.9	4.265
5.112	67.14	97.9609	24578.5	4.299
5.120	67.22	97.9549	24577	4.333
5.128	67.31	97.9490	24575.5	4.366
5.137	67.40	97.9430	24574	4.400
5.145	67.49	97.9370	24572.5	4.434
5.153	67.57	97.9311	24571	4.468
5.162	67.66	97.9251	24569.5	4.502
5.170	67.75	97.9191	24568	4.535
5.178	67.83	97.9132	24566.5	4.569
5.187	67.92	97.9072	24565	4.603
5.195	68.01	97.9012	24563.5	4.636
5.203	68.09	97.8952	24562	4.671
5.212	68.18	97.8893	24560.5	4.705
5.220	68.27	97.8833	24559	4.739
5.228	68.36	97.8774	24557.5	4.773
5.237	68.44	97.8715	24556	4.808
5.245	68.53	97.8655	24554.5	4.841
5.253	68.62	97.8596	24553	4.876
5.262	68.70	97.8537	24551.6	4.910
5.270	68.79	97.8478	24550.1	4.944
5.278	68.88	97.8420	24548.6	4.979
5.287	68.97	97.8361	24547.1	5.012
5.295	69.05	97.8302	24545.7	5.047
5.303	69.14	97.8243	24544.2	5.081
5.312	69.23	97.8184	24542.7	5.116
5.320	69.32	97.8125	24541.2	5.150
5.328	69.40	97.8066	24539.7	5.185
5.337	69.49	97.8008	24538.3	5.220
5.345	69.58	97.7949	24536.8	5.254
5.353	69.67	97.7890	24535.3	5.290
5.362	69.75	97.7831	24533.8	5.325
5.370	69.84	97.7772	24532.4	5.361
5.378	69.93	97.7714	24530.9	5.396
5.387	70.02	97.7655	24529.4	5.431
5.395	70.10	97.7597	24528	5.466
5.403	70.19	97.7538	24526.5	5.502
5.412	70.28	97.7480	24525	5.537
5.420	70.37	97.7421	24523.6	5.573
5.428	70.45	97.7363	24522.1	5.608
5.437	70.54	97.7304	24520.6	5.643
5.445	70.63	97.7245	24519.1	5.679
5.453	70.72	97.7187	24517.7	5.713
5.462	70.80	97.7128	24516.2	5.749
5.470	70.89	97.7070	24514.7	5.785
5.478	70.98	97.7012	24513.3	5.820
5.487	71.06	97.6954	24511.8	5.855
5.495	71.15	97.6896	24510.4	5.890
5.503	71.24	97.6838	24508.9	5.925
5.512	71.33	97.6781	24507.5	5.961
5.520	71.42	97.6723	24506	5.996
5.528	71.50	97.6666	24504.6	6.031
5.537	71.59	97.6608	24503.2	6.066
5.545	71.68	97.6551	24501.7	6.101
5.553	71.77	97.6494	24500.3	6.136
5.562	71.85	97.6437	24498.9	6.171
5.570	71.94	97.6379	24497.4	6.207
5.578	72.03	97.6322	24496	6.243
5.587	72.12	97.6264	24494.5	6.278
5.595	72.20	97.6206	24493.1	6.313
5.603	72.29	97.6149	24491.6	6.349
5.612	72.38	97.6092	24490.2	6.384
5.620	72.47	97.6034	24488.8	6.420
5.628	72.55	97.5977	24487.3	6.456
5.637	72.64	97.5920	24485.9	6.492
5.645	72.73	97.5862	24484.4	6.528
5.653	72.82	97.5805	24483	6.564
5.662	72.91	97.5749	24481.6	6.600
5.670	72.99	97.5692	24480.2	6.636
5.678	73.08	97.5636	24478.8	6.672
5.687	73.17	97.5579	24477.3	6.708
5.695	73.26	97.5523	24475.9	6.745
5.703	73.34	97.5466	24474.5	6.782
5.712	73.43	97.5410	24473.1	6.818
5.720	73.52	97.5354	24471.7	6.854
5.728	73.61	97.5298	24470.3	6.890
5.737	73.70	97.5242	24468.9	6.926
5.745	73.78	97.5186	24467.5	6.962
5.753	73.87	97.5130	24466.1	6.998
5.762	73.96	97.5074	24464.7	7.035
5.770	74.05	97.5019	24463.3	7.072
5.778	74.14	97.4963	24461.9	7.109
5.787	74.22	97.4907	24460.5	7.145
5.795	74.31	97.4852	24459.1	7.182
5.803	74.40	97.4796	24457.7	7.219
5.812	74.49	97.4741	24456.3	7.256
5.820	74.58	97.4686	24454.9	7.293
5.828	74.67	97.4631	24453.6	7.330
5.837	74.75	97.4577	24452.2	7.367
5.845	74.84	97.4522	24450.8	7.403
5.853	74.93	97.4467	24449.4	7.440
5.862	75.02	97.4413	24448.1	7.476
5.870	75.11	97.4358	24446.7	7.513
5.878	75.19	97.4304	24445.4	7.550
5.887	75.28	97.4250	24444	7.586
5.895	75.37	97.4195	24442.6	7.623
5.903	75.46	97.4141	24441.2	7.660
5.912	75.55	97.4086	24439.9	7.697
5.920	75.63	97.4031	24438.5	7.734
5.928	75.72	97.3976	24437.1	7.771
5.937	75.81	97.3922	24435.8	7.808
5.945	75.90	97.3867	24434.4	7.845
5.953	75.99	97.3812	24433	7.882
5.962	76.07	97.3758	24431.6	7.919
5.970	76.16	97.3704	24430.3	7.957
5.978	76.25	97.3650	24428.9	7.994
5.987	76.34	97.3597	24427.6	8.031
5.995	76.43	97.3543	24426.3	8.068
6.003	76.51	97.3490	24424.9	8.105
6.012	76.60	97.3437	24423.6	8.143
6.020	76.69	97.3384	24422.3	8.180
6.028	76.78	97.3331	24420.9	8.218
6.037	76.87	97.3279	24419.6	8.256
6.045	76.95	97.3226	24418.3	8.294
6.053	77.04	97.3173	24417	8.332
6.062	77.13	97.3120	24415.6	8.370
6.070	77.22	97.3068	24414.3	8.408
6.078	77.31	97.3015	24413	8.446
6.087	77.40	97.2963	24411.7	8.485
6.095	77.48	97.2911	24410.4	8.522
6.103	77.57	97.2859	24409.1	8.561
6.112	77.66	97.2807	24407.8	8.598
6.120	77.75	97.2755	24406.5	8.636
6.128	77.84	97.2704	24405.2	8.674
6.137	77.92	97.2652	24403.9	8.711
6.145	78.01	97.2601	24402.6	8.750
6.153	78.10	97.2549	24401.3	8.787
6.162	78.19	97.2497	24400	8.825
6.170	78.28	97.2446	24398.7	8.863
6.178	78.37	97.2395	24397.5	8.901
6.187	78.46	97.2344	24396.2	8.939
6.195	78.54	97.2293	24394.9	8.978
6.203	78.63	97.2243	24393.6	9.015
6.212	78.72	97.2192	24392.3	9.053
6.220	78.81	97.2141	24391.1	9.092
6.228	78.90	97.2090	24389.8	9.130
6.237	78.98	97.2040	24388.5	9.168
6.245	79.07	97.1989	24387.3	9.206
6.253	79.16	97.1938	24386	9.245
6.262	79.25	97.1888	24384.7	9.283
6.270	79.34	97.1837	24383.4	9.322
6.278	79.42	97.1787	24382.2	9.360
6.287	79.51	97.1737	24380.9	9.399
6.295	79.60	97.1686	24379.7	9.438
6.303	79.69	97.1636	24378.4	9.477
6.312	79.78	97.1586	24377.2	9.516
6.320	79.87	97.1537	24375.9	9.555
6.328	79.96	97.1488	24374.7	9.593
6.337	80.04	97.1438	24373.4	9.632
6.345	80.13	97.1389	24372.2	9.671
6.353	80.22	97.1340	24371	9.710
6.362	80.31	97.1291	24369.7	9.749
6.370	80.40	97.1242	24368.5	9.788
6.378	80.49	97.1193	24367.3	9.827
6.387	80.57	97.1144	24366.1	9.865
6.395	80.66	97.1096	24364.8	9.904
6.403	80.75	97.1047	24363.6	9.943
6.412	80.84	97.0999	24362.4	9.982
6.420	80.93	97.0951	24361.2	10.021
6.428	81.02	97.0903	24360	10.059
6.437	81.10	97.0855	24358.8	10.099
6.445	81.19	97.0808	24357.6	10.138
6.453	81.28	97.0761	24356.4	10.178
6.462	81.37	97.0713	24355.2	10.217
6.470	81.46	97.0666	24354.1	10.257
6.478	81.55	97.0619	24352.9	10.297
6.487	81.63	97.0572	24351.7	10.336
6.495	81.72	97.0525	24350.5	10.376
6.503	81.81	97.0478	24349.3	10.416
6.512	81.90	97.0431	24348.2	10.455
6.520	81.99	97.0384	24347	10.495
6.528	82.08	97.0337	24345.8	10.534
6.537	82.17	97.0291	24344.7	10.573
6.545	82.25	97.0245	24343.5	10.613
6.553	82.34	97.0199	24342.3	10.652
6.562	82.43	97.0153	24341.2	10.692
6.570	82.52	97.0107	24340	10.732
6.578	82.61	97.0061	24338.9	10.772
6.587	82.70	97.0015	24337.7	10.812
6.595	82.79	96.9970	24336.6	10.853
6.603	82.87	96.9924	24335.5	10.892
6.612	82.96	96.9879	24334.3	10.932
6.620	83.05	96.9834	24333.2	10.972
6.628	83.14	96.9789	24332.1	11.012
6.637	83.23	96.9743	24330.9	11.052
6.645	83.31	96.9698	24329.8	11.092
6.653	83.40	96.9653	24328.7	11.132
6.662	83.49	96.9608	24327.5	11.172
6.670	83.58	96.9563	24326.4	11.212
6.678	83.67	96.9517	24325.2	11.252
6.687	83.76	96.9473	24324.1	11.293
6.695	83.85	96.9428	24323	11.332
6.703	83.93	96.9383	24321.9	11.372
6.712	84.02	96.9339	24320.8	11.412
6.720	84.11	96.9295	24319.7	11.452
6.728	84.20	96.9250	24318.5	11.492
6.737	84.29	96.9207	24317.5	11.531
6.745	84.38	96.9164	24316.4	11.571
6.753	84.47	96.9120	24315.3	11.611
6.762	84.55	96.9078	24314.2	11.652
6.770	84.64	96.9035	24313.1	11.692
6.778	84.73	96.8992	24312.1	11.733
6.787	84.82	96.8950	24311	11.773
6.795	84.91	96.8908	24310	11.814
6.803	85.00	96.8867	24308.9	11.854
6.812	85.09	96.8825	24307.9	11.895
6.820	85.18	96.8783	24306.8	11.935
6.828	85.26	96.8742	24305.8	11.976
6.837	85.35	96.8700	24304.7	12.016
6.845	85.44	96.8658	24303.7	12.056
6.853	85.53	96.8617	24302.7	12.096
6.862	85.62	96.8575	24301.6	12.137
6.870	85.71	96.8534	24300.6	12.178
6.878	85.79	96.8493	24299.5	12.219
6.887	85.88	96.8451	24298.5	12.260
6.895	85.97	96.8411	24297.5	12.301
6.903	86.06	96.8370	24296.5	12.342
6.912	86.15	96.8330	24295.4	12.383
6.920	86.24	96.8289	24294.4	12.425
6.928	86.33	96.8249	24293.4	12.466
6.937	86.42	96.8209	24292.4	12.506
6.945	86.50	96.8168	24291.4	12.547
6.953	86.59	96.8128	24290.4	12.588
6.962	86.68	96.8088	24289.4	12.629
6.970	86.77	96.8048	24288.4	12.669
6.978	86.86	96.8007	24287.4	12.710
6.987	86.95	96.7967	24286.4	12.750
6.995	87.04	96.7928	24285.4	12.791
7.003	87.12	96.7888	24284.4	12.832
7.012	87.21	96.7849	24283.4	12.873
7.020	87.30	96.7810	24282.4	12.914
7.028	87.39	96.7771	24281.4	12.955
7.037	87.48	96.7732	24280.4	12.996
7.045	87.57	96.7693	24279.5	13.036
7.053	87.66	96.7655	24278.5	13.078
7.062	87.75	96.7616	24277.5	13.119
7.070	87.83	96.7578	24276.6	13.160
7.078	87.92	96.7539	24275.6	13.201
7.087	88.01	96.7501	24274.7	13.243
7.095	88.10	96.7463	24273.7	13.283
7.103	88.19	96.7425	24272.7	13.325
7.112	88.28	96.7387	24271.8	13.366
7.120	88.37	96.7349	24270.8	13.408
7.128	88.45	96.7311	24269.9	13.449
7.137	88.54	96.7273	24268.9	13.489
7.145	88.63	96.7236	24268	13.530
7.153	88.72	96.7198	24267	13.572
7.162	88.81	96.7160	24266.1	13.612
7.170	88.90	96.7122	24265.1	13.654
7.178	88.99	96.7084	24264.2	13.695
7.187	89.07	96.7046	24263.2	13.736
7.195	89.16	96.7008	24262.3	13.777
7.203	89.25	96.6970	24261.3	13.818
7.212	89.34	96.6932	24260.4	13.859
7.220	89.43	96.6895	24259.4	13.900
7.228	89.52	96.6857	24258.5	13.941
7.237	89.61	96.6820	24257.6	13.982
7.245	89.69	96.6782	24256.6	14.023
7.253	89.78	96.6745	24255.7	14.064
7.262	89.87	96.6708	24254.7	14.105
7.270	89.96	96.6670	24253.8	14.146
7.278	90.05	96.6633	24252.9	14.187
7.287	90.14	96.6596	24251.9	14.228
7.295	90.23	96.6558	24251	14.270
7.303	90.32	96.6521	24250.1	14.312
7.312	90.40	96.6484	24249.1	14.354
7.320	90.49	96.6447	24248.2	14.396
7.328	90.58	96.6409	24247.3	14.438
7.337	90.67	96.6372	24246.3	14.480
7.345	90.76	96.6335	24245.4	14.521
7.353	90.85	96.6298	24244.5	14.564
7.362	90.94	96.6261	24243.5	14.606
7.370	91.03	96.6224	24242.6	14.648
7.378	91.12	96.6187	24241.7	14.690
7.387	91.21	96.6150	24240.8	14.732
7.395	91.29	96.6113	24239.8	14.774
7.403	91.38	96.6077	24238.9	14.816
7.412	91.47	96.6040	24238	14.858
7.420	91.56	96.6003	24237.1	14.900
7.428	91.65	96.5967	24236.2	14.942
7.437	91.74	96.5930	24235.2	14.983
7.445	91.83	96.5894	24234.3	15.024
7.453	91.92	96.5857	24233.4	15.065
7.462	92.01	96.5821	24232.5	15.106
7.470	92.09	96.5785	24231.6	15.148
7.478	92.18	96.5749	24230.7	15.189
7.487	92.27	96.5713	24229.8	15.231
7.495	92.36	96.5677	24228.9	15.272
7.503	92.45	96.5641	24228	15.314
7.512	92.54	96.5605	24227.1	15.356
7.520	92.63	96.5569	24226.2	15.398
7.528	92.72	96.5534	24225.3	15.440
7.537	92.80	96.5498	24224.4	15.482
7.545	92.89	96.5463	24223.5	15.524
7.553	92.98	96.5428	24222.6	15.565
7.562	93.07	96.5392	24221.8	15.606
7.570	93.16	96.5357	24220.9	15.647
7.578	93.25	96.5322	24220	15.689
7.587	93.34	96.5287	24219.1	15.730
7.595	93.42	96.5252	24218.2	15.771
7.603	93.51	96.5218	24217.4	15.812
7.612	93.60	96.5183	24216.5	15.853
7.620	93.69	96.5148	24215.6	15.894
7.628	93.78	96.5114	24214.8	15.936
7.637	93.87	96.5080	24213.9	15.977
7.645	93.96	96.5045	24213	16.019
7.653	94.05	96.5011	24212.2	16.061
7.662	94.14	96.4977	24211.3	16.103
7.670	94.23	96.4943	24210.5	16.145
7.678	94.31	96.4910	24209.6	16.187
7.687	94.40	96.4876	24208.8	16.230
7.695	94.49	96.4842	24207.9	16.271
7.703	94.58	96.4809	24207.1	16.314
7.712	94.67	96.4775	24206.3	16.356
7.720	94.76	96.4742	24205.4	16.397
7.728	94.85	96.4709	24204.6	16.439
7.737	94.93	96.4676	24203.8	16.481
7.745	95.02	96.4643	24202.9	16.523
7.753	95.11	96.4610	24202.1	16.565
7.762	95.20	96.4577	24201.3	16.606
7.770	95.29	96.4545	24200.5	16.648
7.778	95.38	96.4512	24199.7	16.690
7.787	95.47	96.4480	24198.9	16.731
7.795	95.56	96.4448	24198.1	16.773
7.803	95.64	96.4416	24197.2	16.814
7.812	95.73	96.4384	24196.4	16.855
7.820	95.82	96.4352	24195.6	16.897
7.828	95.91	96.4320	24194.8	16.939
7.837	96.00	96.4288	24194	16.980
7.845	96.09	96.4256	24193.3	17.021
7.853	96.18	96.4225	24192.5	17.063
7.862	96.27	96.4194	24191.7	17.104
7.870	96.35	96.4162	24190.9	17.146
7.878	96.44	96.4131	24190.1	17.188
7.887	96.53	96.4100	24189.3	17.230
7.895	96.62	96.4069	24188.6	17.272
7.903	96.71	96.4038	24187.8	17.313
7.912	96.80	96.4008	24187	17.355
7.920	96.89	96.3977	24186.2	17.396
7.928	96.98	96.3947	24185.5	17.438
7.937	97.07	96.3916	24184.7	17.479
7.945	97.15	96.3886	24184	17.520
7.953	97.24	96.3856	24183.2	17.562
7.962	97.33	96.3826	24182.4	17.603
7.970	97.42	96.3796	24181.7	17.644
7.978	97.51	96.3766	24181	17.686
7.987	97.60	96.3737	24180.2	17.727
7.995	97.69	96.3707	24179.5	17.769
8.003	97.78	96.3678	24178.7	17.810
8.012	97.87	96.3649	24178	17.852
8.020	97.95	96.3620	24177.3	17.894
8.028	98.04	96.3591	24176.5	17.936
8.037	98.13	96.3562	24175.8	17.978
8.045	98.22	96.3533	24175.1	18.019
8.053	98.31	96.3505	24174.4	18.061
8.062	98.40	96.3476	24173.7	18.103
8.070	98.49	96.3448	24173	18.146
8.078	98.58	96.3419	24172.3	18.188
8.087	98.67	96.3391	24171.5	18.230
8.095	98.76	96.3363	24170.8	18.272
8.103	98.84	96.3336	24170.1	18.314
8.112	98.93	96.3308	24169.5	18.355
8.120	99.02	96.3280	24168.8	18.397
8.128	99.11	96.3253	24168.1	18.439
8.137	99.20	96.3225	24167.4	18.480
8.145	99.29	96.3198	24166.7	18.522
8.153	99.38	96.3171	24166	18.563
8.162	99.47	96.3144	24165.3	18.604
8.170	99.55	96.3117	24164.7	18.645
8.178	99.64	96.3091	24164	18.685
8.187	99.73	96.3064	24163.3	18.726
8.195	99.82	96.3038	24162.7	18.767
8.203	99.91	96.3011	24162	18.807
8.212	100.00	96.2985	24161.3	18.848
8.220	100.09	96.2959	24160.7	18.890
8.228	100.18	96.2933	24160	18.931
8.237	100.26	96.2907	24159.4	18.972
8.245	100.35	96.2881	24158.7	19.013
8.253	100.44	96.2855	24158.1	19.055
8.262	100.53	96.2830	24157.5	19.096
8.270	100.62	96.2804	24156.8	19.138
8.278	100.71	96.2779	24156.2	19.179
8.287	100.80	96.2754	24155.6	19.220
8.295	100.89	96.2729	24154.9	19.261
8.303	100.98	96.2704	24154.3	19.302
8.312	101.07	96.2679	24153.7	19.343
8.320	101.15	96.2655	24153.1	19.385
8.328	101.24	96.2630	24152.4	19.426
8.337	101.33	96.2606	24151.8	19.468
8.345	101.42	96.2581	24151.2	19.509
8.353	101.51	96.2557	24150.6	19.550
8.362	101.60	96.2533	24150	19.591
8.370	101.69	96.2509	24149.4	19.633
8.378	101.78	96.2485	24148.8	19.673
8.387	101.86	96.2461	24148.2	19.714
8.395	101.95	96.2438	24147.6	19.754
8.403	102.04	96.2414	24147	19.795
8.412	102.13	96.2391	24146.4	19.835
8.420	102.22	96.2367	24145.9	19.876
8.428	102.31	96.2344	24145.3	19.918
8.437	102.40	96.2321	24144.7	19.959
8.445	102.48	96.2298	24144.1	20.000
8.453	102.57	96.2275	24143.5	20.041
8.462	102.66	96.2253	24143	20.082
8.470	102.75	96.2230	24142.4	20.123
8.478	102.84	96.2208	24141.8	20.164
8.487	102.93	96.2185	24141.3	20.205
8.495	103.02	96.2163	24140.7	20.246
8.503	103.11	96.2141	24140.2	20.286
8.512	103.20	96.2119	24139.6	20.327
8.520	103.28	96.2097	24139.1	20.368
8.528	103.37	96.2075	24138.5	20.409
8.537	103.46	96.2053	24138	20.450
8.545	103.55	96.2032	24137.4	20.491
8.553	103.64	96.2010	24136.9	20.532
8.562	103.73	96.1989	24136.4	20.572
8.570	103.82	96.1968	24135.8	20.613
8.578	103.90	96.1947	24135.3	20.653
8.587	103.99	96.1926	24134.8	20.694
8.595	104.08	96.1905	24134.2	20.734
8.603	104.17	96.1884	24133.7	20.774
8.612	104.26	96.1863	24133.2	20.814
8.620	104.35	96.1843	24132.7	20.854
8.628	104.44	96.1822	24132.2	20.894
8.637	104.52	96.1802	24131.7	20.934
8.645	104.61	96.1782	24131.2	20.975
8.653	104.70	96.1762	24130.7	21.016
8.662	104.79	96.1742	24130.2	21.057
8.670	104.88	96.1722	24129.7	21.097
8.678	104.97	96.1702	24129.2	21.138
8.687	105.06	96.1682	24128.7	21.179
8.695	105.15	96.1663	24128.2	21.219
8.703	105.24	96.1643	24127.7	21.260
8.712	105.32	96.1624	24127.2	21.301
8.720	105.41	96.1605	24126.7	21.341
8.728	105.50	96.1585	24126.2	21.381
8.737	105.59	96.1566	24125.8	21.421
8.745	105.68	96.1547	24125.3	21.462
8.753	105.77	96.1529	24124.8	21.503
8.762	105.86	96.1510	24124.3	21.543
8.770	105.95	96.1491	24123.9	21.583
8.778	106.04	96.1473	24123.4	21.624
8.787	106.13	96.1454	24122.9	21.664
8.795	106.21	96.1436	24122.5	21.704
8.803	106.30	96.1418	24122	21.744
8.812	106.39	96.1400	24121.6	21.784
8.820	106.48	96.1382	24121.1	21.824
8.828	106.57	96.1364	24120.7	21.863
8.837	106.66	96.1346	24120.2	21.903
8.845	106.75	96.1329	24119.8	21.944
8.853	106.84	96.1311	24119.4	21.983
8.862	106.93	96.1294	24118.9	22.022
8.870	107.01	96.1276	24118.5	22.062
8.878	107.10	96.1259	24118	22.102
8.887	107.19	96.1242	24117.6	22.141
8.895	107.28	96.1225	24117.2	22.180
8.903	107.37	96.1208	24116.8	22.220
8.912	107.46	96.1191	24116.3	22.260
8.920	107.55	96.1175	24115.9	22.299
8.928	107.63	96.1158	24115.5	22.338
8.937	107.72	96.1142	24115.1	22.378
8.945	107.81	96.1125	24114.7	22.417
8.953	107.90	96.1109	24114.3	22.456
8.962	107.99	96.1093	24113.9	22.495
8.970	108.08	96.1077	24113.5	22.534
8.978	108.17	96.1061	24113.1	22.574
8.987	108.25	96.1045	24112.7	22.613
8.995	108.34	96.1030	24112.3	22.651
9.003	108.43	96.1014	24111.9	22.690
9.012	108.52	96.0998	24111.5	22.729
9.020	108.61	96.0983	24111.1	22.768
9.028	108.70	96.0968	24110.7	22.807
9.037	108.79	96.0952	24110.3	22.847
9.045	108.88	96.0937	24110	22.886
9.053	108.96	96.0922	24109.6	22.925
9.062	109.05	96.0907	24109.2	22.964

[step]
Isothermal 30.0 min
Time	Temperature	Weight	Weight	Heat Flow
min	°C	%	µg	mW
9.070	109.14	96.0892	24108.8	23.003
9.095	109.41	96.0848	24107.7	23.121
9.120	109.67	96.0805	24106.7	23.237
9.145	109.94	96.0763	24105.6	23.349
9.170	110.20	96.0722	24104.6	23.462
9.195	110.46	96.0681	24103.5	23.575
9.220	110.72	96.0641	24102.5	23.688
9.245	110.97	96.0603	24101.6	23.801
9.270	111.22	96.0565	24100.6	23.912
9.295	111.47	96.0528	24099.7	24.021
9.320	111.71	96.0493	24098.8	24.127
9.345	111.95	96.0458	24098	24.233
9.370	112.18	96.0425	24097.1	24.337
9.395	112.41	96.0393	24096.3	24.440
9.420	112.63	96.0361	24095.5	24.539
9.445	112.84	96.0330	24094.7	24.638
9.470	113.05	96.0301	24094	24.734
9.495	113.25	96.0272	24093.3	24.829
9.520	113.44	96.0244	24092.6	24.920
9.545	113.63	96.0217	24091.9	25.008
9.570	113.81	96.0191	24091.2	25.095
9.595	113.98	96.0166	24090.6	25.180
9.620	114.14	96.0141	24090	25.261
9.645	114.30	96.0118	24089.4	25.342
9.670	114.45	96.0095	24088.8	25.417
9.695	114.59	96.0074	24088.3	25.490
9.720	114.72	96.0053	24087.8	25.560
9.745	114.85	96.0032	24087.3	25.628
9.770	114.96	96.0013	24086.8	25.693
9.795	115.07	95.9994	24086.3	25.756
9.820	115.17	95.9975	24085.8	25.815
9.845	115.26	95.9957	24085.4	25.872
9.870	115.34	95.9940	24085	25.925
9.895	115.42	95.9924	24084.5	25.977
9.920	115.48	95.9908	24084.2	26.027
9.945	115.54	95.9893	24083.8	26.073
9.970	115.60	95.9879	24083.4	26.116
9.995	115.64	95.9865	24083.1	26.158
10.020	115.68	95.9852	24082.7	26.197
10.045	115.71	95.9839	24082.4	26.233
10.070	115.74	95.9826	24082.1	26.266
10.095	115.75	95.9814	24081.8	26.297
10.120	115.77	95.9802	24081.5	26.325
10.145	115.77	95.9791	24081.2	26.353
10.170	115.78	95.9781	24081	26.378
10.195	115.77	95.9770	24080.7	26.401
10.220	115.76	95.9760	24080.4	26.422
10.245	115.75	95.9751	24080.2	26.439
10.270	115.74	95.9742	24080	26.454
10.295	115.71	95.9733	24079.8	26.470
10.320	115.69	95.9724	24079.5	26.483
10.345	115.67	95.9715	24079.3	26.496
10.370	115.64	95.9707	24079.1	26.505
10.395	115.61	95.9699	24078.9	26.512
10.420	115.58	95.9691	24078.7	26.517
[...]
224.945	952.04	-0.4606	-115.5558	130.197
224.970	952.04	-0.4606	-115.5648	130.199
224.995	952.04	-0.4606	-115.5728	130.200
225.020	952.04	-0.4607	-115.5780	130.201
225.045	952.04	-0.4607	-115.5815	130.200
225.070	952.04	-0.4607	-115.5846	130.199
225.095	952.04	-0.4607	-115.5900	130.198
225.120	952.04	-0.4607	-115.5948	130.197
225.145	952.04	-0.4607	-115.5981	130.197
225.170	952.04	-0.4607	-115.5976	130.198
225.195	952.04	-0.4607	-115.5968	130.197
225.220	952.04	-0.4607	-115.5975	130.196
225.245	952.04	-0.4607	-115.5997	130.194
225.270	952.04	-0.4608	-115.6040	130.192
225.295	952.04	-0.4608	-115.6079	130.190
225.320	952.04	-0.4608	-115.6112	130.189
225.345	952.04	-0.4608	-115.6142	130.187
225.370	952.04	-0.4608	-115.6174	130.185
225.395	952.04	-0.4608	-115.6214	130.184
225.420	952.04	-0.4608	-115.6255	130.184
225.445	952.04	-0.4609	-115.6288	130.185
225.470	952.04	-0.4609	-115.6319	130.186
225.495	952.04	-0.4609	-115.6365	130.187
225.520	952.04	-0.4609	-115.6422	130.188
225.545	952.04	-0.4609	-115.6483	130.187
225.570	952.04	-0.4610	-115.6534	130.186
225.595	952.04	-0.4610	-115.6574	130.184
225.620	952.04	-0.4610	-115.6616	130.181
225.645	952.04	-0.4610	-115.6677	130.179
225.670	952.04	-0.4610	-115.6758	130.177
225.695	952.04	-0.4611	-115.6831	130.175
225.720	952.04	-0.4611	-115.6889	130.174
225.745	952.04	-0.4611	-115.6940	130.173
225.770	952.04	-0.4611	-115.6992	130.171
225.795	952.04	-0.4612	-115.7057	130.169
225.820	952.04	-0.4612	-115.7114	130.168
225.845	952.04	-0.4612	-115.7172	130.168
225.870	952.03	-0.4612	-115.7229	130.168
225.895	952.03	-0.4613	-115.7307	130.168
225.920	952.03	-0.4613	-115.7396	130.167
225.945	952.03	-0.4613	-115.7472	130.168
225.970	952.03	-0.4613	-115.7524	130.167
225.995	952.03	-0.4614	-115.7540	130.166
226.020	952.03	-0.4614	-115.7540	130.164
226.045	952.03	-0.4614	-115.7544	130.163
226.070	952.03	-0.4614	-115.7572	130.163
226.095	952.03	-0.4614	-115.7634	130.163
226.120	952.03	-0.4614	-115.7704	130.164
226.145	952.03	-0.4614	-115.7766	130.163
226.170	952.03	-0.4615	-115.7845	130.164
226.195	952.03	-0.4615	-115.7942	130.164
226.220	952.03	-0.4616	-115.8036	130.164
226.245	952.03	-0.4616	-115.8094	130.164
226.270	952.03	-0.4616	-115.8127	130.164
226.295	952.04	-0.4616	-115.8150	130.164
226.320	952.04	-0.4616	-115.8192	130.164
226.345	952.03	-0.4616	-115.8236	130.164
226.370	952.03	-0.4617	-115.8291	130.164
226.395	952.03	-0.4617	-115.8334	130.164
226.420	952.03	-0.4617	-115.8351	130.163
226.445	952.03	-0.4617	-115.8376	130.163
226.470	952.03	-0.4617	-115.8433	130.162
226.495	952.03	-0.4617	-115.8509	130.161
226.520	952.03	-0.4618	-115.8565	130.160
226.545	952.03	-0.4618	-115.8597	130.159
226.570	952.03	-0.4618	-115.8621	130.159
226.595	952.03	-0.4618	-115.8670	130.159
226.620	952.03	-0.4618	-115.8735	130.159
226.645	952.03	-0.4619	-115.8813	130.159
226.670	952.03	-0.4619	-115.8870	130.158
226.695	952.04	-0.4619	-115.8915	130.158
226.720	952.04	-0.4619	-115.8951	130.157
226.745	952.03	-0.4619	-115.8970	130.158
226.770	952.04	-0.4619	-115.9017	130.159
226.795	952.04	-0.4620	-115.9065	130.160
226.820	952.04	-0.4620	-115.9138	130.162
226.845	952.04	-0.4620	-115.9210	130.163
226.870	952.04	-0.4620	-115.9284	130.165
226.895	952.04	-0.4621	-115.9346	130.166
226.920	952.04	-0.4621	-115.9408	130.167
226.945	952.04	-0.4621	-115.9456	130.168
226.970	952.04	-0.4621	-115.9482	130.169
226.995	952.04	-0.4621	-115.9514	130.169
227.020	952.04	-0.4622	-115.9543	130.168
227.045	952.04	-0.4622	-115.9568	130.166
227.070	952.04	-0.4622	-115.9572	130.163
227.095	952.04	-0.4622	-115.9570	130.160
227.120	952.04	-0.4622	-115.9590	130.158
227.145	952.04	-0.4622	-115.9638	130.158
227.170	952.04	-0.4622	-115.9698	130.158
227.195	952.04	-0.4622	-115.9747	130.158
227.220	952.04	-0.4622	-115.9764	130.158
227.245	952.04	-0.4622	-115.9778	130.158
227.270	952.04	-0.4622	-115.9783	130.159
227.295	952.04	-0.4623	-115.9799	130.160
227.320	952.04	-0.4623	-115.9803	130.160
227.345	952.04	-0.4623	-115.9798	130.160
227.370	952.04	-0.4623	-115.9792	130.160
227.395	952.03	-0.4623	-115.9799	130.160
227.420	952.03	-0.4623	-115.9830	130.161
227.445	952.03	-0.4623	-115.9889	130.161
227.470	952.03	-0.4623	-115.9952	130.160
227.495	952.03	-0.4623	-115.9999	130.161
227.520	952.03	-0.4624	-116.0053	130.162
227.545	952.03	-0.4624	-116.0111	130.164
227.570	952.03	-0.4624	-116.0187	130.166
227.595	952.03	-0.4624	-116.0247	130.167
227.620	952.04	-0.4625	-116.0315	130.169
227.645	952.04	-0.4625	-116.0404	130.170
227.670	952.04	-0.4625	-116.0509	130.171
227.695	952.04	-0.4626	-116.0618	130.173
227.720	952.04	-0.4626	-116.0724	130.174
227.745	952.04	-0.4627	-116.0794	130.174
227.770	952.04	-0.4627	-116.0859	130.173
227.795	952.04	-0.4627	-116.0904	130.173
227.820	952.04	-0.4627	-116.0969	130.174
227.845	952.04	-0.4627	-116.1041	130.174
227.870	952.04	-0.4628	-116.1107	130.173
227.895	952.04	-0.4628	-116.1140	130.172
227.920	952.04	-0.4628	-116.1170	130.170
227.945	952.04	-0.4628	-116.1187	130.169
227.970	952.04	-0.4628	-116.1199	130.168
227.995	952.04	-0.4628	-116.1215	130.168
228.020	952.04	-0.4628	-116.1248	130.168
228.045	952.04	-0.4629	-116.1323	130.167
228.070	952.04	-0.4629	-116.1429	130.167
228.095	952.04	-0.4629	-116.1508	130.166
228.120	952.04	-0.4630	-116.1549	130.165
228.145	952.04	-0.4630	-116.1573	130.164
228.170	952.04	-0.4630	-116.1593	130.162
228.195	952.04	-0.4630	-116.1627	130.161
228.220	952.04	-0.4630	-116.1653	130.159
228.245	952.04	-0.4630	-116.1678	130.159
228.270	952.04	-0.4630	-116.1708	130.158
228.295	952.04	-0.4630	-116.1749	130.159
228.320	952.04	-0.4630	-116.1790	130.159
228.345	952.04	-0.4631	-116.1834	130.159
228.370	952.04	-0.4631	-116.1865	130.159
228.395	952.04	-0.4631	-116.1890	130.159
228.420	952.04	-0.4631	-116.1904	130.157
228.445	952.04	-0.4631	-116.1912	130.155
228.470	952.04	-0.4631	-116.1917	130.154
228.495	952.04	-0.4631	-116.1924	130.153
228.520	952.04	-0.4631	-116.1942	130.151
228.545	952.04	-0.4631	-116.1967	130.148
228.570	952.04	-0.4631	-116.1982	130.146
228.595	952.04	-0.4631	-116.2007	130.144
228.620	952.04	-0.4631	-116.2035	130.142
228.645	952.04	-0.4632	-116.2093	130.141
228.670	952.04	-0.4632	-116.2160	130.140
228.695	952.04	-0.4632	-116.2233	130.139
228.720	952.04	-0.4633	-116.2311	130.138
228.745	952.04	-0.4633	-116.2393	130.138
228.770	952.04	-0.4633	-116.2479	130.137
228.795	952.04	-0.4634	-116.2575	130.135
228.820	952.04	-0.4634	-116.2685	130.135
228.845	952.04	-0.4634	-116.2784	130.134
228.870	952.04	-0.4635	-116.2861	130.134
228.895	952.04	-0.4635	-116.2894	130.134
228.920	952.04	-0.4635	-116.2937	130.134
228.945	952.04	-0.4635	-116.2992	130.134
228.970	952.04	-0.4636	-116.3059	130.134
228.995	952.04	-0.4636	-116.3116	130.134
229.020	952.04	-0.4636	-116.3161	130.134
229.045	952.04	-0.4636	-116.3193	130.133
229.070	952.04	-0.4636	-116.3238	130.132
229.095	952.04	-0.4636	-116.3285	130.131
229.120	952.04	-0.4637	-116.3364	130.130
229.145	952.04	-0.4637	-116.3453	130.129
229.170	952.04	-0.4637	-116.3548	130.127
229.195	952.04	-0.4638	-116.3629	130.125
229.220	952.04	-0.4638	-116.3672	130.123
229.245	952.04	-0.4638	-116.3702	130.122
229.270	952.04	-0.4638	-116.3714	130.120
229.295	952.04	-0.4638	-116.3746	130.118
229.320	952.04	-0.4639	-116.3804	130.116
229.345	952.04	-0.4639	-116.3866	130.114
229.370	952.03	-0.4639	-116.3934	130.113
229.395	952.03	-0.4639	-116.3983	130.112
229.420	952.03	-0.4639	-116.4033	130.113
229.445	952.04	-0.4640	-116.4080	130.114
229.470	952.03	-0.4640	-116.4128	130.115
229.495	952.03	-0.4640	-116.4162	130.116
229.520	952.03	-0.4640	-116.4185	130.116
229.545	952.03	-0.4640	-116.4206	130.115
229.570	952.03	-0.4640	-116.4225	130.114
229.595	952.03	-0.4640	-116.4252	130.114
229.620	952.03	-0.4640	-116.4295	130.114
229.645	952.03	-0.4641	-116.4361	130.114
229.670	952.03	-0.4641	-116.4455	130.115
229.695	952.03	-0.4641	-116.4555	130.115
229.720	952.03	-0.4642	-116.4622	130.115
229.745	952.03	-0.4642	-116.4647	130.115
229.770	952.03	-0.4642	-116.4653	130.115
229.795	952.03	-0.4642	-116.4668	130.116
229.820	952.03	-0.4642	-116.4700	130.115
229.845	952.03	-0.4642	-116.4737	130.113
229.870	952.03	-0.4642	-116.4767	130.111
229.895	952.03	-0.4642	-116.4777	130.108
229.920	952.03	-0.4642	-116.4771	130.107
229.945	952.03	-0.4642	-116.4756	130.108
229.970	952.03	-0.4642	-116.4761	130.109
229.995	952.03	-0.4642	-116.4774	130.110
230.020	952.03	-0.4642	-116.4772	130.111
230.045	952.03	-0.4642	-116.4766	130.112
230.070	952.03	-0.4642	-116.4763	130.112
230.095	952.03	-0.4642	-116.4753	130.114
230.120	952.03	-0.4642	-116.4763	130.115
230.145	952.03	-0.4642	-116.4790	130.117
230.170	952.03	-0.4643	-116.4872	130.119
230.195	952.03	-0.4643	-116.4975	130.121
230.220	952.03	-0.4643	-116.5040	130.123
230.245	952.03	-0.4644	-116.5081	130.125
230.270	952.03	-0.4644	-116.5126	130.125
230.295	952.03	-0.4644	-116.5193	130.125
230.320	952.03	-0.4644	-116.5257	130.124
230.345	952.03	-0.4644	-116.5298	130.124
230.370	952.04	-0.4645	-116.5309	130.124
230.395	952.04	-0.4645	-116.5313	130.124
230.420	952.04	-0.4645	-116.5326	130.123
230.445	952.04	-0.4645	-116.5355	130.123
230.470	952.04	-0.4645	-116.5391	130.122
230.495	952.04	-0.4645	-116.5420	130.121
230.520	952.04	-0.4645	-116.5458	130.119
230.545	952.04	-0.4645	-116.5475	130.117
230.570	952.04	-0.4645	-116.5501	130.115
230.595	952.04	-0.4645	-116.5520	130.112
230.620	952.04	-0.4645	-116.5552	130.110
230.645	952.04	-0.4646	-116.5615	130.108
230.670	952.04	-0.4646	-116.5697	130.105
230.695	952.04	-0.4646	-116.5767	130.102
230.720	952.04	-0.4647	-116.5858	130.098
230.745	952.04	-0.4647	-116.5923	130.096
230.770	952.04	-0.4647	-116.6025	130.094
230.795	952.04	-0.4648	-116.6144	130.094
230.820	952.04	-0.4648	-116.6282	130.093
230.845	952.04	-0.4649	-116.6398	130.093
230.870	952.03	-0.4649	-116.6474	130.093
230.895	952.03	-0.4649	-116.6534	130.094
230.920	952.03	-0.4650	-116.6572	130.093
230.945	952.03	-0.4650	-116.6595	130.093
230.970	952.03	-0.4650	-116.6619	130.091
230.995	952.03	-0.4650	-116.6651	130.090
231.020	952.03	-0.4650	-116.6710	130.088
231.045	952.03	-0.4650	-116.6766	130.086
231.070	952.03	-0.4650	-116.6792	130.085
231.095	952.03	-0.4651	-116.6814	130.084
231.120	952.03	-0.4651	-116.6836	130.083
231.145	952.03	-0.4651	-116.6882	130.082
231.170	952.03	-0.4651	-116.6936	130.082
231.195	952.03	-0.4651	-116.7021	130.081
231.220	952.03	-0.4652	-116.7124	130.080
231.245	952.03	-0.4652	-116.7221	130.079
231.270	952.03	-0.4652	-116.7300	130.079
231.295	952.03	-0.4653	-116.7357	130.079
231.320	952.03	-0.4653	-116.7408	130.080
231.345	952.03	-0.4653	-116.7446	130.080
231.370	952.03	-0.4653	-116.7467	130.080
231.395	952.03	-0.4653	-116.7472	130.078
231.420	952.03	-0.4653	-116.7490	130.077
231.445	952.03	-0.4653	-116.7508	130.077
231.470	952.03	-0.4653	-116.7539	130.077
231.495	952.03	-0.4654	-116.7582	130.077
231.520	952.03	-0.4654	-116.7616	130.077
231.545	952.03	-0.4654	-116.7652	130.077
231.570	952.03	-0.4654	-116.7661	130.079
231.595	952.03	-0.4654	-116.7682	130.079
231.620	952.03	-0.4654	-116.7722	130.080
231.645	952.03	-0.4654	-116.7798	130.080
231.670	952.03	-0.4655	-116.7895	130.080
231.695	952.03	-0.4655	-116.7995	130.079
231.720	952.03	-0.4656	-116.8088	130.079
231.745	952.03	-0.4656	-116.8148	130.079
231.770	952.03	-0.4656	-116.8204	130.079
231.795	952.03	-0.4656	-116.8249	130.079
231.820	952.03	-0.4656	-116.8303	130.080
231.845	952.03	-0.4657	-116.8379	130.081
231.870	952.03	-0.4657	-116.8449	130.082
231.895	952.03	-0.4657	-116.8522	130.081
231.920	952.03	-0.4658	-116.8587	130.081
231.945	952.03	-0.4658	-116.8647	130.080
231.970	952.04	-0.4658	-116.8710	130.079
231.995	952.04	-0.4658	-116.8778	130.079
232.020	952.04	-0.4659	-116.8837	130.079
232.045	952.04	-0.4659	-116.8883	130.078
232.070	952.03	-0.4659	-116.8916	130.076
232.095	952.03	-0.4659	-116.8942	130.072
232.120	952.03	-0.4659	-116.8981	130.069
232.145	952.03	-0.4659	-116.9022	130.066
232.170	952.03	-0.4659	-116.9070	130.064
232.195	952.03	-0.4660	-116.9113	130.062
232.220	952.03	-0.4660	-116.9147	130.061
232.245	952.03	-0.4660	-116.9186	130.061
232.270	952.03	-0.4660	-116.9228	130.061
232.295	952.03	-0.4660	-116.9286	130.061
232.320	952.03	-0.4661	-116.9327	130.060
232.345	952.03	-0.4661	-116.9345	130.058
232.370	952.03	-0.4661	-116.9371	130.057
232.395	952.03	-0.4661	-116.9397	130.057
232.420	952.03	-0.4661	-116.9450	130.057
232.445	952.03	-0.4661	-116.9497	130.058
232.470	952.03	-0.4661	-116.9558	130.059
232.495	952.03	-0.4662	-116.9631	130.058
232.520	952.03	-0.4662	-116.9707	130.057
232.545	952.03	-0.4662	-116.9796	130.056
232.570	952.03	-0.4663	-116.9851	130.055
232.595	952.03	-0.4663	-116.9908	130.054
232.620	952.03	-0.4663	-116.9942	130.053
232.645	952.03	-0.4663	-116.9971	130.053
232.670	952.03	-0.4663	-117.0012	130.052
232.695	952.03	-0.4663	-117.0065	130.052
232.720	952.03	-0.4664	-117.0130	130.051
232.745	952.03	-0.4664	-117.0188	130.051
232.770	952.03	-0.4664	-117.0242	130.052
232.795	952.03	-0.4664	-117.0292	130.053
232.820	952.03	-0.4665	-117.0327	130.054
232.845	952.03	-0.4665	-117.0338	130.054
232.870	952.03	-0.4665	-117.0344	130.054
232.895	952.03	-0.4665	-117.0345	130.054
232.920	952.03	-0.4665	-117.0391	130.053
232.945	952.03	-0.4665	-117.0446	130.052
232.970	952.03	-0.4665	-117.0504	130.051
232.995	952.03	-0.4665	-117.0537	130.050
233.020	952.03	-0.4665	-117.0572	130.050
233.045	952.03	-0.4666	-117.0618	130.048
233.070	952.03	-0.4666	-117.0682	130.048
233.095	952.03	-0.4666	-117.0729	130.047
233.120	952.03	-0.4666	-117.0793	130.047
233.145	952.03	-0.4667	-117.0855	130.048
233.170	952.03	-0.4667	-117.0929	130.051
233.195	952.03	-0.4667	-117.1006	130.053
233.220	952.03	-0.4667	-117.1055	130.055
233.245	952.03	-0.4668	-117.1083	130.055
233.270	952.03	-0.4668	-117.1083	130.054
233.295	952.03	-0.4667	-117.1070	130.053
233.320	952.03	-0.4668	-117.1080	130.052
233.345	952.03	-0.4668	-117.1108	130.050
233.370	952.03	-0.4668	-117.1166	130.049
233.395	952.03	-0.4668	-117.1230	130.047
233.420	952.03	-0.4668	-117.1306	130.045
233.445	952.03	-0.4669	-117.1392	130.042
233.470	952.03	-0.4669	-117.1467	130.041
233.495	952.03	-0.4669	-117.1552	130.040
233.520	952.03	-0.4670	-117.1614	130.040
233.545	952.03	-0.4670	-117.1667	130.040
233.570	952.03	-0.4670	-117.1690	130.039
233.595	952.03	-0.4670	-117.1698	130.037
233.620	952.03	-0.4670	-117.1696	130.035
233.645	952.03	-0.4670	-117.1707	130.034
233.670	952.03	-0.4670	-117.1720	130.034
233.695	952.03	-0.4670	-117.1741	130.033
233.720	952.03	-0.4670	-117.1780	130.034
233.745	952.03	-0.4670	-117.1820	130.034
233.770	952.03	-0.4671	-117.1886	130.034
233.795	952.03	-0.4671	-117.1936	130.034
233.820	952.03	-0.4671	-117.1989	130.034
233.845	952.03	-0.4671	-117.2034	130.035
233.870	952.03	-0.4672	-117.2090	130.036
233.895	952.03	-0.4672	-117.2141	130.037
233.920	952.03	-0.4672	-117.2210	130.037
233.945	952.03	-0.4672	-117.2234	130.037
233.970	952.03	-0.4672	-117.2251	130.038
233.995	952.03	-0.4672	-117.2242	130.039
234.020	952.03	-0.4672	-117.2249	130.040
234.045	952.03	-0.4672	-117.2275	130.040
234.070	952.03	-0.4672	-117.2296	130.039
234.095	952.03	-0.4672	-117.2313	130.039
234.120	952.03	-0.4672	-117.2323	130.040
234.145	952.03	-0.4673	-117.2354	130.042
234.170	952.03	-0.4673	-117.2392	130.043
234.195	952.03	-0.4673	-117.2426	130.044
234.220	952.03	-0.4673	-117.2453	130.046
234.245	952.03	-0.4673	-117.2474	130.049
234.270	952.03	-0.4673	-117.2512	130.053
234.295	952.03	-0.4673	-117.2560	130.056
234.320	952.03	-0.4674	-117.2617	130.057
234.345	952.03	-0.4674	-117.2645	130.058
234.370	952.03	-0.4674	-117.2674	130.060
234.395	952.03	-0.4674	-117.2691	130.060
234.420	952.03	-0.4674	-117.2729	130.061
234.445	952.03	-0.4674	-117.2789	130.061
234.470	952.03	-0.4675	-117.2849	130.062
234.495	952.03	-0.4675	-117.2907	130.062
234.520	952.03	-0.4675	-117.2944	130.060
234.545	952.03	-0.4675	-117.2977	130.059
234.570	952.03	-0.4675	-117.3019	130.058
234.595	952.03	-0.4675	-117.3050	130.058
234.620	952.03	-0.4675	-117.3068	130.059
234.645	952.03	-0.4676	-117.3090	130.059
234.670	952.03	-0.4676	-117.3141	130.060
234.695	952.03	-0.4676	-117.3227	130.060
234.720	952.03	-0.4676	-117.3322	130.060
234.745	952.03	-0.4677	-117.3394	130.060
234.770	952.03	-0.4677	-117.3472	130.060
234.795	952.03	-0.4677	-117.3541	130.060
234.820	952.03	-0.4678	-117.3604	130.060
234.845	952.03	-0.4678	-117.3645	130.060
234.870	952.03	-0.4678	-117.3667	130.061
234.895	952.03	-0.4678	-117.3688	130.062
234.920	952.03	-0.4678	-117.3708	130.063
234.945	952.03	-0.4678	-117.3738	130.063
234.970	952.03	-0.4678	-117.3761	130.063
234.995	952.03	-0.4678	-117.3807	130.063
235.020	952.03	-0.4679	-117.3876	130.063
235.045	952.03	-0.4679	-117.3955	130.063
235.070	952.03	-0.4679	-117.4001	130.062
235.095	952.03	-0.4679	-117.4007	130.062
235.120	952.03	-0.4679	-117.4010	130.062
235.145	952.03	-0.4679	-117.4048	130.061
235.170	952.03	-0.4680	-117.4113	130.061
235.195	952.03	-0.4680	-117.4189	130.060
235.220	952.03	-0.4680	-117.4243	130.060
235.245	952.03	-0.4680	-117.4297	130.060
235.270	952.03	-0.4681	-117.4357	130.060
235.295	952.03	-0.4681	-117.4427	130.060
235.320	952.03	-0.4681	-117.4508	130.059
235.345	952.03	-0.4681	-117.4587	130.057
235.370	952.03	-0.4682	-117.4656	130.056
235.395	952.03	-0.4682	-117.4725	130.054
235.420	952.03	-0.4682	-117.4785	130.052
235.445	952.03	-0.4683	-117.4861	130.051
235.470	952.03	-0.4683	-117.4922	130.050
235.495	952.03	-0.4683	-117.4989	130.048
235.520	952.03	-0.4683	-117.5040	130.046
235.545	952.03	-0.4683	-117.5080	130.044
235.570	952.03	-0.4684	-117.5118	130.043
235.595	952.03	-0.4684	-117.5152	130.042
235.620	952.03	-0.4684	-117.5177	130.042
235.645	952.03	-0.4684	-117.5198	130.041
235.670	952.03	-0.4684	-117.5217	130.041
235.695	952.03	-0.4684	-117.5250	130.041
235.720	952.03	-0.4684	-117.5293	130.041
235.745	952.03	-0.4685	-117.5352	130.041
235.770	952.03	-0.4685	-117.5416	130.041
235.795	952.03	-0.4685	-117.5496	130.041
235.820	952.03	-0.4685	-117.5570	130.041
235.845	952.03	-0.4686	-117.5634	130.040
235.870	952.03	-0.4686	-117.5683	130.039
235.895	952.03	-0.4686	-117.5722	130.039
235.920	952.03	-0.4686	-117.5759	130.038
235.945	952.03	-0.4686	-117.5776	130.036
235.970	952.03	-0.4686	-117.5799	130.036
235.995	952.03	-0.4686	-117.5829	130.034
236.020	952.03	-0.4686	-117.5845	130.034
236.045	952.03	-0.4687	-117.5868	130.035
236.070	952.03	-0.4687	-117.5876	130.036
236.095	952.03	-0.4687	-117.5890	130.038
236.120	952.03	-0.4687	-117.5909	130.039
236.145	952.03	-0.4687	-117.5929	130.039
236.170	952.03	-0.4687	-117.5991	130.039
236.195	952.03	-0.4687	-117.6060	130.040
236.220	952.03	-0.4688	-117.6124	130.040
236.245	952.03	-0.4688	-117.6149	130.041
236.270	952.03	-0.4688	-117.6156	130.041
236.295	952.03	-0.4688	-117.6184	130.042
236.320	952.03	-0.4688	-117.6232	130.043
236.345	952.03	-0.4688	-117.6290	130.043
236.370	952.03	-0.4688	-117.6338	130.043
236.395	952.03	-0.4689	-117.6369	130.043
236.420	952.03	-0.4689	-117.6392	130.042
236.445	952.03	-0.4689	-117.6397	130.041
236.470	952.03	-0.4689	-117.6413	130.039
236.495	952.03	-0.4689	-117.6438	130.037
236.520	952.03	-0.4689	-117.6480	130.036
236.545	952.03	-0.4689	-117.6524	130.035
236.570	952.03	-0.4689	-117.6559	130.033
236.595	952.03	-0.4690	-117.6612	130.032
236.620	952.03	-0.4690	-117.6679	130.031
236.645	952.03	-0.4690	-117.6767	130.032
236.670	952.03	-0.4690	-117.6844	130.033
236.695	952.03	-0.4691	-117.6910	130.035
236.720	952.03	-0.4691	-117.6956	130.036
236.745	952.03	-0.4691	-117.7026	130.038
236.770	952.03	-0.4692	-117.7105	130.039
236.795	952.03	-0.4692	-117.7177	130.040
236.820	952.03	-0.4692	-117.7223	130.041
236.845	952.03	-0.4692	-117.7263	130.042
236.870	952.03	-0.4692	-117.7309	130.042
236.895	952.03	-0.4693	-117.7353	130.040
236.920	952.03	-0.4693	-117.7385	130.039
236.945	952.03	-0.4693	-117.7410	130.039
236.970	952.03	-0.4693	-117.7446	130.038
236.995	952.03	-0.4693	-117.7470	130.038
237.020	952.03	-0.4693	-117.7496	130.037
237.045		-0.4693	-117.7504
237.062		-0.4693	-117.7509

[step]
Equilibrate 30.00 °C
Time	Temperature	Weight	Weight	Heat Flow
min	°C	%	µg	mW