File: example/soliddist/SDa_2.txt
Time	Temperature	Weight	Weight	Heat Flow
min	°C	%	mg	mW
0.003		99.9942	10.8796
0.012		99.9864	10.8788
0.020		99.9845	10.8786
0.028		99.9867	10.8788
0.037		99.9900	10.8792
0.045	25.42	99.9939	10.8796	-22.824
0.053	25.50	99.9974	10.8800	-22.781
0.062	25.58	100.0002	10.8803	-22.738
0.070	25.66	100.0020	10.8805	-22.696
0.078	25.74	100.0028	10.8806	-22.656
0.087	25.82	100.0027	10.8805	-22.615
0.095	25.90	100.0022	10.8805	-22.575
0.103	25.98	100.0015	10.8804	-22.535
0.112	26.06	100.0006	10.8803	-22.497
0.120	26.14	99.9995	10.8802	-22.460
0.128	26.21	99.9983	10.8801	-22.424
0.137	26.29	99.9970	10.8799	-22.387
0.145	26.37	99.9956	10.8798	-22.351
0.153	26.45	99.9940	10.8796	-22.316
0.162	26.52	99.9924	10.8794	-22.282
0.170	26.60	99.9906	10.8792	-22.249
0.178	26.67	99.9887	10.8790	-22.217
0.187	26.75	99.9868	10.8788	-22.186
0.195	26.82	99.9846	10.8786	-22.155
0.203	26.90	99.9824	10.8783	-22.124
0.212	26.97	99.9801	10.8781	-22.094
0.220	27.04	99.9777	10.8778	-22.065
0.228	27.12	99.9752	10.8775	-22.036
0.237	27.19	99.9726	10.8773	-22.008
0.245	27.26	99.9698	10.8770	-21.981
0.253	27.33	99.9670	10.8767	-21.953
0.262	27.40	99.9641	10.8763	-21.927
0.270	27.47	99.9610	10.8760	-21.900
0.278	27.54	99.9579	10.8757	-21.875
0.287	27.61	99.9547	10.8753	-21.850
0.295	27.68	99.9513	10.8749	-21.825
0.303	27.75	99.9479	10.8746	-21.801
0.312	27.81	99.9444	10.8742	-21.777
0.320	27.88	99.9407	10.8738	-21.753
0.328	27.95	99.9370	10.8734	-21.731
0.337	28.02	99.9332	10.8730	-21.708
0.345	28.08	99.9292	10.8725	-21.685
0.353	28.15	99.9252	10.8721	-21.663
0.362	28.21	99.9211	10.8717	-21.640
0.370	28.28	99.9169	10.8712	-21.618
0.378	28.34	99.9126	10.8707	-21.597
0.387	28.41	99.9082	10.8703	-21.576
0.395	28.47	99.9037	10.8698	-21.556
0.403	28.54	99.8991	10.8693	-21.536
0.412	28.60	99.8945	10.8688	-21.517
0.420	28.66	99.8898	10.8682	-21.498
0.428	28.72	99.8849	10.8677	-21.479
0.437	28.79	99.8800	10.8672	-21.460
0.445	28.85	99.8751	10.8666	-21.443
0.453	28.91	99.8700	10.8661	-21.425
0.462	28.97	99.8649	10.8655	-21.407
0.470	29.03	99.8597	10.8650	-21.389
0.478	29.09	99.8545	10.8644	-21.372
0.487	29.15	99.8492	10.8638	-21.354
0.495	29.21	99.8438	10.8632	-21.337
0.503	29.27	99.8383	10.8627	-21.320
0.512	29.32	99.8328	10.8621	-21.302
0.520	29.38	99.8273	10.8614	-21.286
0.528	29.44	99.8216	10.8608	-21.269
0.537	29.50	99.8160	10.8602	-21.252
0.545	29.55	99.8102	10.8596	-21.236
0.553	29.61	99.8044	10.8590	-21.221
0.562	29.66	99.7986	10.8583	-21.205
0.570	29.72	99.7927	10.8577	-21.190
0.578	29.78	99.7867	10.8570	-21.175
0.587	29.83	99.7807	10.8564	-21.160
0.595	29.88	99.7747	10.8557	-21.145
0.603	29.94	99.7686	10.8551	-21.130
0.612	29.99	99.7624	10.8544	-21.115
0.620	30.04	99.7563	10.8537	-21.100
0.628	30.10	99.7500	10.8530	-21.085
0.637	30.15	99.7438	10.8524	-21.070
0.645	30.20	99.7375	10.8517	-21.056
0.653	30.26	99.7311	10.8510	-21.041
0.662	30.31	99.7248	10.8503	-21.027
0.670	30.36	99.7184	10.8496	-21.012
0.678	30.41	99.7119	10.8489	-20.998
0.687	30.46	99.7054	10.8482	-20.984
0.695	30.51	99.6989	10.8475	-20.970
0.703	30.56	99.6924	10.8468	-20.956
0.712	30.61	99.6858	10.8461	-20.942
0.720	30.66	99.6792	10.8453	-20.928
0.728	30.71	99.6725	10.8446	-20.914
0.737	30.76	99.6659	10.8439	-20.900
0.745	30.81	99.6592	10.8432	-20.886
0.753	30.86	99.6525	10.8424	-20.873
0.762	30.91	99.6457	10.8417	-20.859
0.770	30.96	99.6389	10.8410	-20.845
0.778	31.01	99.6321	10.8402	-20.831
0.787	31.06	99.6253	10.8395	-20.817
0.795	31.11	99.6185	10.8387	-20.804
0.803	31.15	99.6117	10.8380	-20.790
0.812	31.20	99.6048	10.8372	-20.777
0.820	31.25	99.5979	10.8365	-20.764
0.828	31.30	99.5910	10.8357	-20.751
0.837	31.35	99.5841	10.8350	-20.738
0.845	31.39	99.5772	10.8342	-20.725
0.853	31.44	99.5702	10.8335	-20.713
0.862	31.49	99.5633	10.8327	-20.700
0.870	31.53	99.5563	10.8320	-20.687
0.878	31.58	99.5493	10.8312	-20.675
0.887	31.63	99.5422	10.8304	-20.662
0.895	31.68	99.5352	10.8297	-20.649
0.903	31.72	99.5282	10.8289	-20.636
0.912	31.77	99.5211	10.8281	-20.623
0.920	31.82	99.5141	10.8274	-20.611
0.928	31.86	99.5070	10.8266	-20.598
0.937	31.91	99.4999	10.8258	-20.586
0.945	31.96	99.4929	10.8251	-20.574
0.953	32.01	99.4858	10.8243	-20.562
0.962	32.06	99.4787	10.8235	-20.550
0.970	32.10	99.4716	10.8228	-20.537
0.978	32.15	99.4645	10.8220	-20.524
0.987	32.20	99.4574	10.8212	-20.512
0.995	32.25	99.4503	10.8204	-20.499
1.003	32.30	99.4432	10.8197	-20.487
1.012	32.35	99.4361	10.8189	-20.476
1.020	32.39	99.4290	10.8181	-20.464
1.028	32.44	99.4219	10.8173	-20.452
1.037	32.49	99.4149	10.8166	-20.440
1.045	32.54	99.4078	10.8158	-20.429
1.053	32.59	99.4006	10.8150	-20.417
1.062	32.64	99.3936	10.8143	-20.406
1.070	32.69	99.3864	10.8135	-20.394
1.078	32.74	99.3793	10.8127	-20.382
1.087	32.79	99.3722	10.8119	-20.370
1.095	32.84	99.3651	10.8112	-20.358
1.103	32.89	99.3580	10.8104	-20.345
1.112	32.94	99.3509	10.8096	-20.332
1.120	33.00	99.3438	10.8089	-20.319
1.128	33.05	99.3368	10.8081	-20.305
1.137	33.10	99.3297	10.8073	-20.292
1.145	33.15	99.3226	10.8065	-20.279
1.153	33.20	99.3155	10.8058	-20.266
1.162	33.26	99.3084	10.8050	-20.252
1.170	33.31	99.3013	10.8042	-20.238
1.178	33.36	99.2943	10.8035	-20.224
1.187	33.42	99.2872	10.8027	-20.211
1.195	33.47	99.2801	10.8019	-20.198
1.203	33.52	99.2730	10.8011	-20.184
1.212	33.58	99.2659	10.8004	-20.170
1.220	33.63	99.2588	10.7996	-20.156
1.228	33.69	99.2517	10.7988	-20.142
1.237	33.74	99.2446	10.7981	-20.128
1.245	33.80	99.2375	10.7973	-20.114
1.253	33.85	99.2304	10.7965	-20.100
1.262	33.91	99.2233	10.7957	-20.086
1.270	33.96	99.2161	10.7950	-20.071
1.278	34.02	99.2090	10.7942	-20.056
1.287	34.08	99.2019	10.7934	-20.041
1.295	34.13	99.1948	10.7926	-20.027
1.303	34.19	99.1877	10.7919	-20.013
1.312	34.25	99.1806	10.7911	-19.998
1.320	34.31	99.1734	10.7903	-19.982
1.328	34.36	99.1663	10.7895	-19.966
1.337	34.42	99.1592	10.7888	-19.950
1.345	34.48	99.1520	10.7880	-19.934
1.353	34.54	99.1449	10.7872	-19.918
1.362	34.60	99.1377	10.7864	-19.901
1.370	34.66	99.1305	10.7856	-19.884
1.378	34.72	99.1234	10.7849	-19.867
1.387	34.78	99.1162	10.7841	-19.850
1.395	34.84	99.1091	10.7833	-19.833
1.403	34.90	99.1019	10.7825	-19.815
1.412	34.96	99.0947	10.7817	-19.798
1.420	35.02	99.0876	10.7810	-19.780
1.428	35.08	99.0804	10.7802	-19.762
1.437	35.15	99.0732	10.7794	-19.745
1.445	35.21	99.0660	10.7786	-19.728
1.453	35.27	99.0589	10.7778	-19.710
1.462	35.34	99.0517	10.7771	-19.692
1.470	35.40	99.0445	10.7763	-19.673
1.478	35.46	99.0372	10.7755	-19.654
1.487	35.53	99.0300	10.7747	-19.635
1.495	35.59	99.0228	10.7739	-19.617
1.503	35.65	99.0156	10.7731	-19.598
1.512	35.72	99.0083	10.7723	-19.579
1.520	35.78	99.0011	10.7716	-19.558
1.528	35.85	98.9938	10.7708	-19.539
1.537	35.92	98.9866	10.7700	-19.518
1.545	35.98	98.9793	10.7692	-19.498
1.553	36.05	98.9720	10.7684	-19.478
1.562	36.12	98.9648	10.7676	-19.459
1.570	36.18	98.9575	10.7668	-19.439
1.578	36.25	98.9502	10.7660	-19.418
1.587	36.32	98.9429	10.7652	-19.398
1.595	36.39	98.9356	10.7644	-19.377
1.603	36.45	98.9283	10.7636	-19.357
1.612	36.52	98.9210	10.7628	-19.335
1.620	36.59	98.9136	10.7620	-19.314
1.628	36.66	98.9063	10.7612	-19.293
1.637	36.73	98.8989	10.7604	-19.271
1.645	36.80	98.8916	10.7596	-19.249
1.653	36.87	98.8842	10.7588	-19.227
1.662	36.94	98.8768	10.7580	-19.206
1.670	37.01	98.8694	10.7572	-19.183
1.678	37.08	98.8620	10.7564	-19.161
1.687	37.15	98.8546	10.7556	-19.138
1.695	37.22	98.8472	10.7548	-19.116
1.703	37.29	98.8397	10.7540	-19.094
1.712	37.37	98.8323	10.7532	-19.072
1.720	37.44	98.8249	10.7524	-19.049
1.728	37.51	98.8174	10.7516	-19.025
1.737	37.58	98.8100	10.7508	-19.002
1.745	37.66	98.8025	10.7500	-18.978
1.753	37.73	98.7950	10.7491	-18.955
1.762	37.80	98.7876	10.7483	-18.932
1.770	37.88	98.7801	10.7475	-18.908
1.778	37.95	98.7726	10.7467	-18.884
1.787	38.03	98.7651	10.7459	-18.859
1.795	38.10	98.7576	10.7451	-18.835
1.803	38.18	98.7501	10.7442	-18.811
1.812	38.25	98.7425	10.7434	-18.787
1.820	38.33	98.7350	10.7426	-18.763
1.828	38.41	98.7275	10.7418	-18.739
1.837	38.48	98.7199	10.7410	-18.714
1.845	38.56	98.7123	10.7401	-18.688
1.853	38.63	98.7048	10.7393	-18.664
1.862	38.71	98.6972	10.7385	-18.640
1.870	38.79	98.6896	10.7377	-18.615
1.878	38.87	98.6820	10.7368	-18.590
1.887	38.94	98.6744	10.7360	-18.565
1.895	39.02	98.6668	10.7352	-18.539
1.903	39.10	98.6592	10.7344	-18.513
1.912	39.18	98.6516	10.7335	-18.487
1.920	39.25	98.6439	10.7327	-18.462
1.928	39.33	98.6363	10.7319	-18.438
1.937	39.41	98.6286	10.7310	-18.412
1.945	39.49	98.6210	10.7302	-18.386
1.953	39.57	98.6133	10.7294	-18.360
1.962	39.65	98.6056	10.7285	-18.333
1.970	39.73	98.5979	10.7277	-18.307
1.978	39.81	98.5902	10.7269	-18.281
1.987	39.89	98.5825	10.7260	-18.254
1.995	39.97	98.5748	10.7252	-18.227
2.003	40.05	98.5670	10.7243	-18.200
2.012	40.13	98.5593	10.7235	-18.173
2.020	40.22	98.5515	10.7226	-18.146
2.028	40.30	98.5438	10.7218	-18.119
2.037	40.38	98.5360	10.7210	-18.093
2.045	40.46	98.5282	10.7201	-18.067
2.053	40.54	98.5204	10.7193	-18.040
2.062	40.62	98.5126	10.7184	-18.013
2.070	40.71	98.5048	10.7176	-17.987
2.078	40.79	98.4970	10.7167	-17.960
2.087	40.87	98.4892	10.7159	-17.934
2.095	40.95	98.4814	10.7150	-17.907
2.103	41.04	98.4736	10.7142	-17.880
2.112	41.12	98.4657	10.7133	-17.852
2.120	41.21	98.4579	10.7125	-17.824
2.128	41.29	98.4500	10.7116	-17.795
2.137	41.37	98.4422	10.7107	-17.766
2.145	41.46	98.4343	10.7099	-17.738
2.153	41.54	98.4264	10.7090	-17.709
2.162	41.63	98.4185	10.7082	-17.680
2.170	41.71	98.4106	10.7073	-17.651
2.178	41.80	98.4027	10.7065	-17.623
2.187	41.88	98.3948	10.7056	-17.594
2.195	41.96	98.3868	10.7047	-17.566
2.203	42.05	98.3789	10.7039	-17.538
2.212	42.13	98.3709	10.7030	-17.510
2.220	42.22	98.3630	10.7021	-17.482
2.228	42.31	98.3550	10.7013	-17.453
2.237	42.39	98.3470	10.7004	-17.424
2.245	42.48	98.3390	10.6995	-17.396
2.253	42.56	98.3311	10.6987	-17.367
2.262	42.65	98.3230	10.6978	-17.338
2.270	42.74	98.3150	10.6969	-17.308
2.278	42.82	98.3070	10.6960	-17.279
2.287	42.91	98.2990	10.6952	-17.249
2.295	43.00	98.2910	10.6943	-17.220
2.303	43.09	98.2829	10.6934	-17.191
2.312	43.17	98.2748	10.6925	-17.162
2.320	43.26	98.2668	10.6917	-17.132
2.328	43.35	98.2587	10.6908	-17.103
2.337	43.43	98.2506	10.6899	-17.074
2.345	43.52	98.2425	10.6890	-17.044
2.353	43.61	98.2344	10.6881	-17.015
2.362	43.70	98.2263	10.6873	-16.985
2.370	43.79	98.2182	10.6864	-16.955
2.378	43.87	98.2101	10.6855	-16.925
2.387	43.96	98.2019	10.6846	-16.895
2.395	44.05	98.1938	10.6837	-16.865
2.403	44.14	98.1856	10.6828	-16.835
2.412	44.23	98.1775	10.6819	-16.803
2.420	44.31	98.1693	10.6811	-16.772
2.428	44.40	98.1611	10.6802	-16.741
2.437	44.49	98.1529	10.6793	-16.711
2.445	44.58	98.1447	10.6784	-16.680
2.453	44.67	98.1365	10.6775	-16.649
2.462	44.76	98.1283	10.6766	-16.618
2.470	44.85	98.1201	10.6757	-16.587
2.478	44.94	98.1119	10.6748	-16.556
2.487	45.02	98.1037	10.6739	-16.525
2.495	45.11	98.0954	10.6730	-16.495
2.503	45.20	98.0872	10.6721	-16.464
2.512	45.29	98.0789	10.6712	-16.433
2.520	45.38	98.0707	10.6703	-16.402
2.528	45.47	98.0624	10.6694	-16.370
2.537	45.56	98.0541	10.6685	-16.339
2.545	45.65	98.0459	10.6676	-16.307
2.553	45.74	98.0376	10.6667	-16.276
2.562	45.83	98.0293	10.6658	-16.244
2.570	45.92	98.0210	10.6649	-16.212
2.578	46.01	98.0128	10.6640	-16.179
2.587	46.10	98.0045	10.6631	-16.147
2.595	46.19	97.9962	10.6622	-16.115
2.603	46.28	97.9879	10.6613	-16.082
2.612	46.37	97.9796	10.6604	-16.051
2.620	46.46	97.9713	10.6595	-16.018
2.628	46.55	97.9630	10.6586	-15.986
2.637	46.64	97.9547	10.6577	-15.954
2.645	46.73	97.9464	10.6568	-15.922
2.653	46.82	97.9380	10.6559	-15.889
2.662	46.92	97.9297	10.6550	-15.857
2.670	47.01	97.9214	10.6541	-15.824
2.678	47.10	97.9130	10.6532	-15.791
2.687	47.19	97.9047	10.6523	-15.759
2.695	47.28	97.8963	10.6514	-15.726
2.703	47.37	97.8880	10.6504	-15.692
2.712	47.46	97.8796	10.6495	-15.659
2.720	47.55	97.8712	10.6486	-15.626
2.728	47.64	97.8629	10.6477	-15.593
2.737	47.73	97.8545	10.6468	-15.560
2.745	47.82	97.8461	10.6459	-15.527
2.753	47.91	97.8378	10.6450	-15.494
2.762	48.00	97.8294	10.6441	-15.461
2.770	48.09	97.8210	10.6432	-15.428
2.778	48.19	97.8126	10.6422	-15.394
2.787	48.28	97.8042	10.6413	-15.362
2.795	48.37	97.7958	10.6404	-15.329
2.803	48.46	97.7874	10.6395	-15.295
2.812	48.55	97.7790	10.6386	-15.262
2.820	48.64	97.7706	10.6377	-15.228
2.828	48.73	97.7621	10.6368	-15.194
2.837	48.82	97.7537	10.6358	-15.160
2.845	48.91	97.7453	10.6349	-15.126
2.853	49.01	97.7368	10.6340	-15.092
2.862	49.10	97.7284	10.6331	-15.058
2.870	49.19	97.7199	10.6322	-15.024
2.878	49.28	97.7115	10.6312	-14.990
2.887	49.37	97.7031	10.6303	-14.956
2.895	49.46	97.6946	10.6294	-14.922
2.903	49.55	97.6862	10.6285	-14.888
2.912	49.64	97.6777	10.6276	-14.854
2.920	49.73	97.6693	10.6267	-14.821
2.928	49.82	97.6609	10.6257	-14.787
2.937	49.91	97.6524	10.6248	-14.753
2.945	50.01	97.6440	10.6239	-14.719
2.953	50.10	97.6355	10.6230	-14.685
2.962	50.19	97.6271	10.6221	-14.650
2.970	50.28	97.6187	10.6211	-14.615
2.978	50.37	97.6102	10.6202	-14.581
2.987	50.46	97.6018	10.6193	-14.546
2.995	50.55	97.5933	10.6184	-14.512
3.003	50.64	97.5849	10.6175	-14.476
3.012	50.74	97.5764	10.6166	-14.442
3.020	50.83	97.5680	10.6156	-14.406
3.028	50.92	97.5596	10.6147	-14.371
3.037	51.01	97.5511	10.6138	-14.336
3.045	51.10	97.5427	10.6129	-14.301
3.053	51.19	97.5342	10.6120	-14.267
3.062	51.28	97.5258	10.6110	-14.232
3.070	51.37	97.5174	10.6101	-14.197
3.078	51.46	97.5090	10.6092	-14.162
3.087	51.55	97.5005	10.6083	-14.127
3.095	51.65	97.4921	10.6074	-14.092
3.103	51.74	97.4837	10.6065	-14.057
3.112	51.83	97.4753	10.6055	-14.022
3.120	51.92	97.4669	10.6046	-13.988
3.128	52.01	97.4585	10.6037	-13.953
3.137	52.10	97.4501	10.6028	-13.918
3.145	52.19	97.4418	10.6019	-13.882
3.153	52.28	97.4334	10.6010	-13.847
3.162	52.37	97.4250	10.6001	-13.812
3.170	52.46	97.4166	10.5992	-13.777
3.178	52.55	97.4082	10.5983	-13.743
3.187	52.64	97.3999	10.5973	-13.708
3.195	52.73	97.3915	10.5964	-13.673
3.203	52.82	97.3832	10.5955	-13.638
3.212	52.91	97.3748	10.5946	-13.602
3.220	53.01	97.3665	10.5937	-13.567
3.228	53.10	97.3581	10.5928	-13.531
3.237	53.19	97.3498	10.5919	-13.496
3.245	53.28	97.3414	10.5910	-13.460
3.253	53.37	97.3331	10.5901	-13.423
3.262	53.46	97.3248	10.5892	-13.387
3.270	53.55	97.3164	10.5883	-13.351
3.278	53.64	97.3081	10.5874	-13.316
3.287	53.73	97.2998	10.5865	-13.280
3.295	53.82	97.2915	10.5856	-13.244
3.303	53.91	97.2832	10.5847	-13.208
3.312	54.00	97.2749	10.5837	-13.172
3.320	54.09	97.2666	10.5828	-13.137
3.328	54.18	97.2584	10.5819	-13.102
3.337	54.27	97.2501	10.5810	-13.066
3.345	54.36	97.2418	10.5801	-13.030
3.353	54.45	97.2336	10.5792	-12.995
3.362	54.54	97.2253	10.5784	-12.959
3.370	54.63	97.2171	10.5775	-12.922
3.378	54.72	97.2088	10.5766	-12.885
3.387	54.81	97.2006	10.5757	-12.849
3.395	54.90	97.1923	10.5748	-12.813
3.403	54.99	97.1841	10.5739	-12.776
3.412	55.08	97.1759	10.5730	-12.740
3.420	55.17	97.1677	10.5721	-12.703
3.428	55.26	97.1595	10.5712	-12.667
3.437	55.35	97.1513	10.5703	-12.630
3.445	55.44	97.1431	10.5694	-12.593
3.453	55.53	97.1349	10.5685	-12.557
3.462	55.62	97.1268	10.5676	-12.522
3.470	55.71	97.1186	10.5667	-12.485
3.478	55.80	97.1105	10.5659	-12.448
3.487	55.89	97.1023	10.5650	-12.412
3.495	55.98	97.0942	10.5641	-12.376
3.503	56.07	97.0861	10.5632	-12.340
3.512	56.15	97.0780	10.5623	-12.304
3.520	56.24	97.0699	10.5614	-12.268
3.528	56.33	97.0619	10.5606	-12.232
3.537	56.42	97.0538	10.5597	-12.196
3.545	56.51	97.0457	10.5588	-12.160
3.553	56.60	97.0377	10.5579	-12.124
3.562	56.69	97.0297	10.5571	-12.089
3.570	56.78	97.0217	10.5562	-12.052
3.578	56.87	97.0137	10.5553	-12.016
3.587	56.96	97.0057	10.5545	-11.979
3.595	57.04	96.9977	10.5536	-11.943
3.603	57.13	96.9898	10.5527	-11.906
3.612	57.22	96.9818	10.5519	-11.870
3.620	57.31	96.9739	10.5510	-11.833
3.628	57.40	96.9660	10.5501	-11.796
3.637	57.49	96.9581	10.5493	-11.759
3.645	57.58	96.9502	10.5484	-11.723
3.653	57.67	96.9423	10.5476	-11.687
3.662	57.75	96.9344	10.5467	-11.650
3.670	57.84	96.9266	10.5458	-11.614
3.678	57.93	96.9187	10.5450	-11.576
3.687	58.02	96.9109	10.5441	-11.540
3.695	58.11	96.9031	10.5433	-11.503
3.703	58.20	96.8953	10.5424	-11.466
3.712	58.28	96.8875	10.5416	-11.429
3.720	58.37	96.8798	10.5408	-11.392
3.728	58.46	96.8720	10.5399	-11.356
3.737	58.55	96.8643	10.5391	-11.320
3.745	58.64	96.8565	10.5382	-11.283
3.753	58.72	96.8488	10.5374	-11.247
3.762	58.81	96.8411	10.5365	-11.211
3.770	58.90	96.8334	10.5357	-11.175
3.778	58.99	96.8257	10.5349	-11.140
3.787	59.08	96.8181	10.5340	-11.104
3.795	59.17	96.8104	10.5332	-11.068
3.803	59.25	96.8027	10.5324	-11.032
3.812	59.34	96.7951	10.5315	-10.996
3.820	59.43	96.7875	10.5307	-10.959
3.828	59.52	96.7799	10.5299	-10.922
3.837	59.61	96.7723	10.5291	-10.886
3.845	59.69	96.7647	10.5282	-10.849
3.853	59.78	96.7572	10.5274	-10.812
3.862	59.87	96.7496	10.5266	-10.776
3.870	59.96	96.7421	10.5258	-10.740
3.878	60.04	96.7346	10.5250	-10.703
3.887	60.13	96.7271	10.5241	-10.666
3.895	60.22	96.7197	10.5233	-10.629
3.903	60.31	96.7122	10.5225	-10.592
3.912	60.39	96.7048	10.5217	-10.555
3.920	60.48	96.6973	10.5209	-10.518
3.928	60.57	96.6899	10.5201	-10.481
3.937	60.66	96.6825	10.5193	-10.444
3.945	60.74	96.6751	10.5185	-10.407
3.953	60.83	96.6677	10.5177	-10.370
3.962	60.92	96.6604	10.5169	-10.333
3.970	61.01	96.6530	10.5161	-10.296
3.978	61.09	96.6457	10.5153	-10.259
3.987	61.18	96.6384	10.5145	-10.222
3.995	61.27	96.6311	10.5137	-10.186
4.003	61.36	96.6239	10.5129	-10.148
4.012	61.44	96.6166	10.5121	-10.112
4.020	61.53	96.6094	10.5113	-10.075
4.028	61.62	96.6022	10.5106	-10.038
4.037	61.70	96.5950	10.5098	-10.000
4.045	61.79	96.5878	10.5090	-9.965
4.053	61.88	96.5806	10.5082	-9.928
4.062	61.96	96.5735	10.5074	-9.892
4.070	62.05	96.5663	10.5067	-9.856
4.078	62.14	96.5592	10.5059	-9.820
4.087	62.23	96.5521	10.5051	-9.784
4.095	62.31	96.5450	10.5043	-9.748
4.103	62.40	96.5379	10.5036	-9.712
4.112	62.49	96.5309	10.5028	-9.676
4.120	62.57	96.5238	10.5020	-9.640
4.128	62.66	96.5168	10.5013	-9.604
4.137	62.75	96.5098	10.5005	-9.567
4.145	62.83	96.5028	10.4997	-9.531
4.153	62.92	96.4958	10.4990	-9.495
4.162	63.01	96.4889	10.4982	-9.459
4.170	63.09	96.4819	10.4975	-9.422
4.178	63.18	96.4750	10.4967	-9.386
4.187	63.26	96.4681	10.4960	-9.350
4.195	63.35	96.4612	10.4952	-9.313
4.203	63.44	96.4543	10.4945	-9.277
4.212	63.52	96.4475	10.4937	-9.241
4.220	63.61	96.4407	10.4930	-9.205
4.228	63.70	96.4338	10.4922	-9.168
4.237	63.78	96.4271	10.4915	-9.131
4.245	63.87	96.4203	10.4908	-9.095
4.253	63.96	96.4135	10.4900	-9.058
4.262	64.04	96.4068	10.4893	-9.021
4.270	64.13	96.4001	10.4886	-8.985
4.278	64.22	96.3933	10.4878	-8.948
4.287	64.30	96.3867	10.4871	-8.912
4.295	64.39	96.3800	10.4864	-8.876
4.303	64.47	96.3733	10.4857	-8.840
4.312	64.56	96.3667	10.4849	-8.805
4.320	64.65	96.3601	10.4842	-8.770
4.328	64.73	96.3535	10.4835	-8.733
4.337	64.82	96.3469	10.4828	-8.698
4.345	64.90	96.3403	10.4821	-8.663
4.353	64.99	96.3338	10.4813	-8.627
4.362	65.08	96.3272	10.4806	-8.591
4.370	65.16	96.3207	10.4799	-8.554
4.378	65.25	96.3142	10.4792	-8.518
4.387	65.34	96.3077	10.4785	-8.481
4.395	65.42	96.3012	10.4778	-8.445
4.403	65.51	96.2948	10.4771	-8.409
4.412	65.59	96.2883	10.4764	-8.374
4.420	65.68	96.2819	10.4757	-8.339
4.428	65.77	96.2755	10.4750	-8.303
4.437	65.85	96.2691	10.4743	-8.267
4.445	65.94	96.2627	10.4736	-8.231
4.453	66.02	96.2564	10.4729	-8.196
4.462	66.11	96.2501	10.4722	-8.160
4.470	66.19	96.2437	10.4716	-8.125
4.478	66.28	96.2374	10.4709	-8.089
4.487	66.37	96.2312	10.4702	-8.053
4.495	66.45	96.2249	10.4695	-8.016
4.503	66.54	96.2187	10.4688	-7.980
4.512	66.62	96.2125	10.4681	-7.944
4.520	66.71	96.2063	10.4675	-7.909
4.528	66.80	96.2001	10.4668	-7.873
4.537	66.88	96.1939	10.4661	-7.837
4.545	66.97	96.1878	10.4655	-7.801
4.553	67.05	96.1816	10.4648	-7.765
4.562	67.14	96.1755	10.4641	-7.730
4.570	67.22	96.1694	10.4635	-7.694
4.578	67.31	96.1633	10.4628	-7.660
4.587	67.40	96.1573	10.4621	-7.624
4.595	67.48	96.1512	10.4615	-7.589
4.603	67.57	96.1452	10.4608	-7.553
4.612	67.65	96.1392	10.4602	-7.518
4.620	67.74	96.1333	10.4595	-7.482
4.628	67.83	96.1273	10.4589	-7.447
4.637	67.91	96.1214	10.4582	-7.412
4.645	68.00	96.1154	10.4576	-7.376
4.653	68.08	96.1095	10.4569	-7.341
4.662	68.17	96.1036	10.4563	-7.305
4.670	68.25	96.0978	10.4557	-7.269
4.678	68.34	96.0919	10.4550	-7.234
4.687	68.43	96.0861	10.4544	-7.199
4.695	68.51	96.0802	10.4538	-7.165
4.703	68.60	96.0744	10.4531	-7.130
4.712	68.68	96.0687	10.4525	-7.095
4.720	68.77	96.0629	10.4519	-7.060
4.728	68.85	96.0571	10.4513	-7.025
4.737	68.94	96.0514	10.4506	-6.990
4.745	69.02	96.0457	10.4500	-6.955
4.753	69.11	96.0400	10.4494	-6.921
4.762	69.20	96.0343	10.4488	-6.887
4.770	69.28	96.0286	10.4481	-6.853
4.778	69.37	96.0229	10.4475	-6.818
4.787	69.45	96.0173	10.4469	-6.784
4.795	69.54	96.0117	10.4463	-6.750
4.803	69.62	96.0061	10.4457	-6.717
4.812	69.71	96.0005	10.4451	-6.683
4.820	69.79	95.9949	10.4445	-6.650
4.828	69.88	95.9893	10.4439	-6.616
4.837	69.96	95.9838	10.4433	-6.582
4.845	70.05	95.9783	10.4427	-6.547
4.853	70.13	95.9728	10.4421	-6.513
4.862	70.22	95.9673	10.4415	-6.478
4.870	70.31	95.9618	10.4409	-6.443
4.878	70.39	95.9563	10.4403	-6.408
4.887	70.48	95.9509	10.4397	-6.374
4.895	70.56	95.9454	10.4391	-6.338
4.903	70.65	95.9400	10.4385	-6.303
4.912	70.74	95.9346	10.4379	-6.269
4.920	70.82	95.9293	10.4373	-6.234
4.928	70.91	95.9239	10.4368	-6.200
4.937	70.99	95.9185	10.4362	-6.166
4.945	71.08	95.9132	10.4356	-6.131
4.953	71.16	95.9079	10.4350	-6.097
4.962	71.25	95.9026	10.4344	-6.062
4.970	71.33	95.8973	10.4339	-6.028
4.978	71.42	95.8921	10.4333	-5.994
4.987	71.50	95.8868	10.4327	-5.959
4.995	71.59	95.8816	10.4321	-5.925
5.003	71.67	95.8764	10.4316	-5.891
5.012	71.76	95.8712	10.4310	-5.856
5.020	71.85	95.8661	10.4305	-5.822
5.028	71.93	95.8609	10.4299	-5.788
5.037	72.02	95.8558	10.4293	-5.754
5.045	72.10	95.8507	10.4288	-5.721
5.053	72.19	95.8456	10.4282	-5.687
5.062	72.27	95.8405	10.4277	-5.653
5.070	72.36	95.8355	10.4271	-5.619
5.078	72.45	95.8304	10.4266	-5.585
5.087	72.53	95.8254	10.4260	-5.552
5.095	72.62	95.8204	10.4255	-5.519
5.103	72.70	95.8153	10.4249	-5.486
5.112	72.79	95.8104	10.4244	-5.453
5.120	72.87	95.8054	10.4239	-5.420
5.128	72.96	95.8004	10.4233	-5.387
5.137	73.04	95.7955	10.4228	-5.354
5.145	73.13	95.7906	10.4222	-5.322
5.153	73.22	95.7857	10.4217	-5.290
5.162	73.30	95.7808	10.4212	-5.257
5.170	73.39	95.7759	10.4206	-5.224
5.178	73.47	95.7710	10.4201	-5.189
5.187	73.56	95.7662	10.4196	-5.156
5.195	73.64	95.7614	10.4191	-5.122
5.203	73.73	95.7566	10.4185	-5.088
5.212	73.82	95.7518	10.4180	-5.055
5.220	73.90	95.7470	10.4175	-5.021
5.228	73.99	95.7423	10.4170	-4.988
5.237	74.07	95.7375	10.4165	-4.954
5.245	74.16	95.7328	10.4160	-4.921
5.253	74.25	95.7281	10.4155	-4.887
5.262	74.33	95.7235	10.4149	-4.855
5.270	74.42	95.7188	10.4144	-4.822
5.278	74.50	95.7141	10.4139	-4.790
5.287	74.59	95.7095	10.4134	-4.757
5.295	74.67	95.7049	10.4129	-4.725
5.303	74.76	95.7002	10.4124	-4.693
5.312	74.84	95.6956	10.4119	-4.660
5.320	74.93	95.6910	10.4114	-4.628
5.328	75.02	95.6865	10.4109	-4.596
5.337	75.10	95.6819	10.4104	-4.564
5.345	75.19	95.6774	10.4099	-4.531
5.353	75.27	95.6728	10.4094	-4.498
5.362	75.36	95.6683	10.4089	-4.465
5.370	75.44	95.6638	10.4085	-4.433
5.378	75.53	95.6594	10.4080	-4.401
5.387	75.62	95.6549	10.4075	-4.368
5.395	75.70	95.6505	10.4070	-4.336
5.403	75.79	95.6460	10.4065	-4.303
5.412	75.87	95.6416	10.4060	-4.271
5.420	75.96	95.6372	10.4056	-4.239
5.428	76.04	95.6328	10.4051	-4.208
5.437	76.13	95.6284	10.4046	-4.175
5.445	76.22	95.6241	10.4041	-4.143
5.453	76.30	95.6197	10.4037	-4.111
5.462	76.39	95.6154	10.4032	-4.079
5.470	76.47	95.6111	10.4027	-4.047
5.478	76.56	95.6068	10.4022	-4.015
5.487	76.65	95.6025	10.4018	-3.984
5.495	76.73	95.5982	10.4013	-3.952
5.503	76.82	95.5940	10.4009	-3.921
5.512	76.90	95.5897	10.4004	-3.889
5.520	76.99	95.5855	10.3999	-3.857
5.528	77.08	95.5813	10.3995	-3.826
5.537	77.16	95.5771	10.3990	-3.794
5.545	77.25	95.5730	10.3986	-3.762
5.553	77.33	95.5688	10.3981	-3.730
5.562	77.42	95.5647	10.3977	-3.699
5.570	77.51	95.5605	10.3972	-3.667
5.578	77.59	95.5564	10.3968	-3.636
5.587	77.68	95.5523	10.3963	-3.605
5.595	77.76	95.5482	10.3959	-3.573
5.603	77.85	95.5442	10.3954	-3.541
5.612	77.94	95.5401	10.3950	-3.510
5.620	78.02	95.5361	10.3946	-3.479
5.628	78.11	95.5320	10.3941	-3.448
5.637	78.20	95.5280	10.3937	-3.417
5.645	78.28	95.5240	10.3932	-3.386
5.653	78.37	95.5200	10.3928	-3.354
5.662	78.45	95.5160	10.3924	-3.323
5.670	78.54	95.5121	10.3919	-3.292
5.678	78.63	95.5081	10.3915	-3.261
5.687	78.71	95.5042	10.3911	-3.230
5.695	78.80	95.5003	10.3907	-3.200
5.703	78.89	95.4964	10.3902	-3.169
5.712	78.97	95.4925	10.3898	-3.138
5.720	79.06	95.4886	10.3894	-3.107
5.728	79.14	95.4847	10.3890	-3.077
5.737	79.23	95.4808	10.3885	-3.046
5.745	79.32	95.4770	10.3881	-3.015
5.753	79.40	95.4732	10.3877	-2.984
5.762	79.49	95.4694	10.3873	-2.954
5.770	79.57	95.4656	10.3869	-2.924
5.778	79.66	95.4618	10.3865	-2.894
5.787	79.75	95.4580	10.3861	-2.863
5.795	79.83	95.4542	10.3857	-2.833
5.803	79.92	95.4505	10.3852	-2.802
5.812	80.01	95.4468	10.3848	-2.772
5.820	80.09	95.4431	10.3844	-2.742
5.828	80.18	95.4393	10.3840	-2.712
5.837	80.27	95.4357	10.3836	-2.682
5.845	80.35	95.4320	10.3832	-2.652
5.853	80.44	95.4283	10.3828	-2.621
5.862	80.52	95.4247	10.3824	-2.590
5.870	80.61	95.4210	10.3820	-2.559
5.878	80.70	95.4174	10.3816	-2.530
5.887	80.78	95.4138	10.3813	-2.499
5.895	80.87	95.4102	10.3809	-2.469
5.903	80.96	95.4066	10.3805	-2.439
5.912	81.04	95.4030	10.3801	-2.409
5.920	81.13	95.3995	10.3797	-2.379
5.928	81.22	95.3960	10.3793	-2.349
5.937	81.30	95.3924	10.3789	-2.320
5.945	81.39	95.3889	10.3785	-2.290
5.953	81.47	95.3854	10.3782	-2.260
5.962	81.56	95.3820	10.3778	-2.230
5.970	81.65	95.3785	10.3774	-2.200
5.978	81.73	95.3750	10.3770	-2.171
5.987	81.82	95.3716	10.3767	-2.141
5.995	81.91	95.3682	10.3763	-2.112
6.003	81.99	95.3647	10.3759	-2.082
6.012	82.08	95.3613	10.3755	-2.052
6.020	82.17	95.3579	10.3752	-2.023
6.028	82.25	95.3545	10.3748	-1.993
6.037	82.34	95.3512	10.3744	-1.963
6.045	82.43	95.3478	10.3741	-1.933
6.053	82.51	95.3445	10.3737	-1.904
6.062	82.60	95.3411	10.3733	-1.874
6.070	82.69	95.3378	10.3730	-1.845
6.078	82.77	95.3345	10.3726	-1.816
6.087	82.86	95.3312	10.3723	-1.787
6.095	82.95	95.3279	10.3719	-1.758
6.103	83.03	95.3246	10.3716	-1.729
6.112	83.12	95.3214	10.3712	-1.700
6.120	83.21	95.3182	10.3708	-1.672
6.128	83.29	95.3149	10.3705	-1.644
6.137	83.38	95.3117	10.3701	-1.615
6.145	83.47	95.3085	10.3698	-1.587
6.153	83.55	95.3053	10.3694	-1.558
6.162	83.64	95.3021	10.3691	-1.529
6.170	83.73	95.2989	10.3688	-1.500
6.178	83.81	95.2957	10.3684	-1.472
6.187	83.90	95.2926	10.3681	-1.443
6.195	83.99	95.2894	10.3677	-1.414
6.203	84.07	95.2863	10.3674	-1.385
6.212	84.16	95.2831	10.3670	-1.356
6.220	84.25	95.2800	10.3667	-1.327
6.228	84.33	95.2769	10.3664	-1.298
6.237	84.42	95.2739	10.3660	-1.269
6.245	84.51	95.2708	10.3657	-1.239
6.253	84.59	95.2677	10.3654	-1.209
6.262	84.68	95.2647	10.3650	-1.180
6.270	84.77	95.2617	10.3647	-1.151
6.278	84.86	95.2587	10.3644	-1.122
6.287	84.94	95.2557	10.3640	-1.093
6.295	85.03	95.2527	10.3637	-1.064
6.303	85.12	95.2497	10.3634	-1.035
6.312	85.20	95.2468	10.3631	-1.007
6.320	85.29	95.2438	10.3628	-0.978
6.328	85.38	95.2409	10.3624	-0.950
6.337	85.46	95.2379	10.3621	-0.922
6.345	85.55	95.2350	10.3618	-0.894
6.353	85.64	95.2321	10.3615	-0.865
6.362	85.72	95.2292	10.3612	-0.837
6.370	85.81	95.2263	10.3609	-0.809
6.378	85.90	95.2235	10.3605	-0.782
6.387	85.98	95.2206	10.3602	-0.754
6.395	86.07	95.2178	10.3599	-0.725
6.403	86.16	95.2149	10.3596	-0.697
6.412	86.24	95.2121	10.3593	-0.669
6.420	86.33	95.2093	10.3590	-0.642
6.428	86.42	95.2065	10.3587	-0.615
6.437	86.50	95.2037	10.3584	-0.587
6.445	86.59	95.2009	10.3581	-0.559
6.453	86.68	95.1981	10.3578	-0.531
6.462	86.77	95.1954	10.3575	-0.503
6.470	86.85	95.1926	10.3572	-0.476
6.478	86.94	95.1899	10.3569	-0.449
6.487	87.03	95.1871	10.3566	-0.421
6.495	87.11	95.1844	10.3563	-0.393
6.503	87.20	95.1817	10.3560	-0.364
6.512	87.29	95.1790	10.3557	-0.336
6.520	87.37	95.1763	10.3554	-0.309
6.528	87.46	95.1736	10.3551	-0.281
6.537	87.55	95.1709	10.3548	-0.254
6.545	87.63	95.1683	10.3545	-0.226
6.553	87.72	95.1656	10.3542	-0.198
6.562	87.81	95.1630	10.3540	-0.171
6.570	87.90	95.1603	10.3537	-0.144
6.578	87.98	95.1577	10.3534	-0.117
6.587	88.07	95.1551	10.3531	-0.091
6.595	88.16	95.1525	10.3528	-0.064
6.603	88.24	95.1500	10.3525	-0.037
6.612	88.33	95.1474	10.3523	-0.011
6.620	88.42	95.1448	10.3520	0.015
6.628	88.50	95.1423	10.3517	0.042
6.637	88.59	95.1397	10.3514	0.069
6.645	88.68	95.1372	10.3512	0.096
6.653	88.76	95.1347	10.3509	0.123
6.662	88.85	95.1322	10.3506	0.150
6.670	88.94	95.1297	10.3503	0.176
6.678	89.03	95.1272	10.3501	0.203
6.687	89.11	95.1247	10.3498	0.231
6.695	89.20	95.1222	10.3495	0.258
6.703	89.29	95.1198	10.3493	0.285
6.712	89.37	95.1173	10.3490	0.312
6.720	89.46	95.1149	10.3487	0.339
6.728	89.55	95.1125	10.3485	0.366
6.737	89.63	95.1100	10.3482	0.392
6.745	89.72	95.1076	10.3479	0.419
6.753	89.81	95.1052	10.3477	0.446
6.762	89.89	95.1029	10.3474	0.472
6.770	89.98	95.1005	10.3472	0.498
6.778	90.07	95.0981	10.3469	0.524
6.787	90.16	95.0958	10.3467	0.551
6.795	90.24	95.0934	10.3464	0.577
6.803	90.33	95.0911	10.3461	0.603
6.812	90.42	95.0888	10.3459	0.629
6.820	90.50	95.0865	10.3456	0.656
6.828	90.59	95.0842	10.3454	0.682
6.837	90.68	95.0819	10.3451	0.709
6.845	90.77	95.0796	10.3449	0.735
6.853	90.85	95.0774	10.3446	0.762
6.862	90.94	95.0751	10.3444	0.788
6.870	91.03	95.0729	10.3442	0.814
6.878	91.11	95.0707	10.3439	0.841
6.887	91.20	95.0685	10.3437	0.867
6.895	91.29	95.0663	10.3434	0.894
6.903	91.37	95.0641	10.3432	0.920
6.912	91.46	95.0619	10.3430	0.947
6.920	91.55	95.0597	10.3427	0.973
6.928	91.64	95.0575	10.3425	0.999
6.937	91.72	95.0554	10.3423	1.025
6.945	91.81	95.0532	10.3420	1.051
6.953	91.90	95.0511	10.3418	1.076
6.962	91.98	95.0490	10.3416	1.102
6.970	92.07	95.0468	10.3413	1.127
6.978	92.16	95.0447	10.3411	1.152
6.987	92.24	95.0426	10.3409	1.177
6.995	92.33	95.0405	10.3406	1.202
7.003	92.42	95.0385	10.3404	1.227
7.012	92.50	95.0364	10.3402	1.252
7.020	92.59	95.0343	10.3400	1.277
7.028	92.68	95.0323	10.3397	1.302
7.037	92.77	95.0302	10.3395	1.327
7.045	92.85	95.0282	10.3393	1.352
7.053	92.94	95.0262	10.3391	1.378
7.062	93.03	95.0242	10.3389	1.404
7.070	93.11	95.0222	10.3386	1.429
7.078	93.20	95.0202	10.3384	1.454
7.087	93.29	95.0182	10.3382	1.480
7.095	93.37	95.0162	10.3380	1.505
7.103	93.46	95.0142	10.3378	1.530
7.112	93.55	95.0122	10.3376	1.556
7.120	93.63	95.0103	10.3373	1.581
7.128	93.72	95.0083	10.3371	1.606
7.137	93.81	95.0064	10.3369	1.632
7.145	93.89	95.0045	10.3367	1.657
7.153	93.98	95.0025	10.3365	1.682
7.162	94.07	95.0006	10.3363	1.706
7.170	94.16	94.9987	10.3361	1.731
7.178	94.24	94.9968	10.3359	1.757
7.187	94.33	94.9950	10.3357	1.782
7.195	94.42	94.9931	10.3355	1.807
7.203	94.50	94.9912	10.3353	1.831
7.212	94.59	94.9894	10.3351	1.856
7.220	94.68	94.9875	10.3349	1.880
7.228	94.76	94.9857	10.3347	1.904
7.237	94.85	94.9839	10.3345	1.928
7.245	94.94	94.9820	10.3343	1.953
7.253	95.03	94.9802	10.3341	1.976
7.262	95.11	94.9784	10.3339	2.001
7.270	95.20	94.9766	10.3337	2.026
7.278	95.29	94.9748	10.3335	2.050
7.287	95.37	94.9730	10.3333	2.074
7.295	95.46	94.9712	10.3331	2.098
7.303	95.55	94.9694	10.3329	2.123
7.312	95.63	94.9677	10.3327	2.147
7.320	95.72	94.9659	10.3325	2.171
7.328	95.81	94.9642	10.3323	2.196
7.337	95.89	94.9625	10.3321	2.221
7.345	95.98	94.9608	10.3320	2.244
7.353	96.07	94.9591	10.3318	2.268
7.362	96.16	94.9574	10.3316	2.292
7.370	96.24	94.9557	10.3314	2.317
7.378	96.33	94.9540	10.3312	2.341
7.387	96.42	94.9523	10.3310	2.364
7.395	96.50	94.9507	10.3309	2.388
7.403	96.59	94.9490	10.3307	2.412
7.412	96.68	94.9473	10.3305	2.435
7.420	96.76	94.9457	10.3303	2.459
7.428	96.85	94.9440	10.3301	2.483
7.437	96.93	94.9424	10.3300	2.506
7.445	97.02	94.9408	10.3298	2.531
7.453	97.11	94.9392	10.3296	2.554
7.462	97.20	94.9375	10.3294	2.578
7.470	97.28	94.9359	10.3293	2.602
7.478	97.37	94.9343	10.3291	2.626
7.487	97.46	94.9327	10.3289	2.650
7.495	97.54	94.9311	10.3287	2.674
7.503	97.63	94.9296	10.3286	2.698
7.512	97.72	94.9280	10.3284	2.721
7.520	97.80	94.9264	10.3282	2.745
7.528	97.89	94.9249	10.3281	2.768
7.537	97.98	94.9233	10.3279	2.792
7.545	98.06	94.9218	10.3277	2.816
7.553	98.15	94.9203	10.3276	2.839
7.562	98.24	94.9188	10.3274	2.861
7.570	98.32	94.9173	10.3272	2.885
7.578	98.41	94.9157	10.3271	2.908
7.587	98.50	94.9142	10.3269	2.931
7.595	98.58	94.9127	10.3267	2.955
7.603	98.67	94.9112	10.3266	2.978
7.612	98.76	94.9098	10.3264	3.001
7.620	98.84	94.9083	10.3263	3.025
7.628	98.93	94.9068	10.3261	3.048
7.637	99.02	94.9054	10.3259	3.072
7.645	99.10	94.9040	10.3258	3.095
7.653	99.19	94.9025	10.3256	3.119
7.662	99.28	94.9011	10.3255	3.141
7.670	99.36	94.8997	10.3253	3.164
7.678	99.45	94.8983	10.3252	3.187
7.687	99.54	94.8969	10.3250	3.210
7.695	99.62	94.8955	10.3249	3.233
7.703	99.71	94.8941	10.3247	3.255
7.712	99.80	94.8927	10.3246	3.278
7.720	99.88	94.8914	10.3244	3.300
7.728	99.97	94.8900	10.3243	3.323
7.737	100.06	94.8886	10.3241	3.345
7.745	100.14	94.8873	10.3240	3.368
7.753	100.23	94.8859	10.3238	3.392
7.762	100.32	94.8846	10.3237	3.414
7.770	100.40	94.8833	10.3235	3.436
7.778	100.49	94.8820	10.3234	3.459
7.787	100.58	94.8807	10.3232	3.481
7.795	100.66	94.8793	10.3231	3.504
7.803	100.75	94.8781	10.3230	3.527
7.812	100.84	94.8768	10.3228	3.549
7.820	100.92	94.8755	10.3227	3.572
7.828	101.01	94.8742	10.3225	3.594
7.837	101.10	94.8729	10.3224	3.616
7.845	101.18	94.8716	10.3223	3.638
7.853	101.27	94.8704	10.3221	3.661
7.862	101.35	94.8691	10.3220	3.683
7.870	101.44	94.8679	10.3219	3.705
7.878	101.53	94.8666	10.3217	3.727
7.887	101.61	94.8654	10.3216	3.749
7.895	101.70	94.8642	10.3215	3.771
7.903	101.79	94.8629	10.3213	3.794
7.912	101.87	94.8617	10.3212	3.816
7.920	101.96	94.8605	10.3211	3.839
7.928	102.05	94.8593	10.3209	3.861
7.937	102.13	94.8581	10.3208	3.882
7.945	102.22	94.8569	10.3207	3.904
7.953	102.31	94.8557	10.3205	3.925
7.962	102.39	94.8545	10.3204	3.946
7.970	102.48	94.8534	10.3203	3.968
7.978	102.56	94.8522	10.3202	3.989
7.987	102.65	94.8511	10.3200	4.010
7.995	102.74	94.8499	10.3199	4.030
8.003	102.82	94.8488	10.3198	4.051
8.012	102.91	94.8476	10.3197	4.072
8.020	103.00	94.8465	10.3195	4.093
8.028	103.08	94.8454	10.3194	4.115
8.037	103.17	94.8443	10.3193	4.136
8.045	103.26	94.8432	10.3192	4.158
8.053	103.34	94.8421	10.3191	4.180
8.062	103.43	94.8411	10.3189	4.201
8.070	103.51	94.8400	10.3188	4.222
8.078	103.60	94.8389	10.3187	4.243
8.087	103.69	94.8379	10.3186	4.264
8.095	103.77	94.8368	10.3185	4.285
8.103	103.86	94.8358	10.3184	4.306
8.112	103.95	94.8347	10.3183	4.328
8.120	104.03	94.8337	10.3181	4.349
8.128	104.12	94.8327	10.3180	4.369
8.137	104.21	94.8316	10.3179	4.391
8.145	104.29	94.8306	10.3178	4.412
8.153	104.38	94.8296	10.3177	4.434
8.162	104.46	94.8286	10.3176	4.456
8.170	104.55	94.8276	10.3175	4.478
8.178	104.64	94.8266	10.3174	4.499
8.187	104.72	94.8256	10.3173	4.521
8.195	104.81	94.8246	10.3171	4.541
8.203	104.90	94.8236	10.3170	4.562
8.212	104.98	94.8226	10.3169	4.584
8.220	105.07	94.8216	10.3168	4.605
8.228	105.16	94.8207	10.3167	4.625
8.237	105.24	94.8197	10.3166	4.645
8.245	105.33	94.8187	10.3165	4.665
8.253	105.42	94.8178	10.3164	4.686
8.262	105.50	94.8168	10.3163	4.706
8.270	105.59	94.8159	10.3162	4.726
8.278	105.67	94.8149	10.3161	4.747
8.287	105.76	94.8140	10.3160	4.767
8.295	105.85	94.8130	10.3159	4.786
8.303	105.93	94.8121	10.3158	4.806
8.312	106.02	94.8112	10.3157	4.826
8.320	106.11	94.8103	10.3156	4.846
8.328	106.19	94.8094	10.3155	4.866
8.337	106.28	94.8085	10.3154	4.886
8.345	106.36	94.8076	10.3153	4.906

[step]
Isothermal 30.0 min
Time	Temperature	Weight	Weight	Heat Flow
min	°C	%	mg	mW
8.353	106.45	94.8067	10.3152	4.926
8.378	106.71	94.8040	10.3149	4.986
8.403	106.97	94.8014	10.3146	5.047
8.428	107.22	94.7988	10.3143	5.110
8.453	107.48	94.7963	10.3141	5.173
8.478	107.73	94.7938	10.3138	5.237
8.503	107.99	94.7914	10.3135	5.303
8.528	108.24	94.7890	10.3133	5.370
8.553	108.48	94.7866	10.3130	5.439
8.578	108.73	94.7843	10.3128	5.511
8.603	108.97	94.7819	10.3125	5.588
8.628	109.20	94.7796	10.3123	5.666
8.653	109.43	94.7774	10.3120	5.747
8.678	109.66	94.7751	10.3118	5.827
8.703	109.88	94.7729	10.3115	5.910
8.728	110.09	94.7707	10.3113	5.994
8.753	110.30	94.7686	10.3111	6.081
8.778	110.50	94.7666	10.3108	6.169
8.803	110.70	94.7646	10.3106	6.257
8.828	110.89	94.7625	10.3104	6.347
8.853	111.08	94.7605	10.3102	6.440
8.878	111.26	94.7586	10.3100	6.534
8.903	111.43	94.7566	10.3097	6.627
8.928	111.60	94.7546	10.3095	6.721
8.953	111.76	94.7527	10.3093	6.816
8.978	111.91	94.7508	10.3091	6.913
9.003	112.06	94.7490	10.3089	7.010
9.028	112.20	94.7473	10.3087	7.107
9.053	112.33	94.7455	10.3085	7.202
9.078	112.45	94.7439	10.3084	7.298
9.103	112.57	94.7422	10.3082	7.394
9.128	112.68	94.7406	10.3080	7.492
9.153	112.78	94.7390	10.3078	7.589
9.178	112.88	94.7375	10.3077	7.686
9.203	112.97	94.7359	10.3075	7.780
9.228	113.05	94.7344	10.3073	7.873
9.253	113.12	94.7329	10.3072	7.963
9.278	113.19	94.7314	10.3070	8.049
9.303	113.25	94.7299	10.3068	8.133
9.328	113.31	94.7284	10.3067	8.215
9.353	113.36	94.7270	10.3065	8.296
9.378	113.40	94.7256	10.3064	8.375
9.403	113.44	94.7242	10.3062	8.451
9.428	113.48	94.7229	10.3061	8.524
9.453	113.51	94.7216	10.3059	8.595
9.478	113.54	94.7203	10.3058	8.664
9.503	113.56	94.7191	10.3057	8.730
9.528	113.57	94.7179	10.3055	8.792
9.553	113.58	94.7167	10.3054	8.851
9.578	113.59	94.7155	10.3053	8.909
9.603	113.59	94.7144	10.3052	8.965
9.628	113.59	94.7133	10.3050	9.018
9.653	113.58	94.7122	10.3049	9.068
9.678	113.57	94.7112	10.3048	9.114
9.703	113.56	94.7101	10.3047	9.159
9.728	113.54	94.7091	10.3046	9.204
9.753	113.52	94.7081	10.3045	9.245
9.778	113.50	94.7071	10.3044	9.285
9.803	113.47	94.7061	10.3043	9.321
9.828	113.44	94.7051	10.3041	9.356
9.853	113.41	94.7041	10.3040	9.387
9.878	113.38	94.7032	10.3039	9.415
9.903	113.34	94.7023	10.3038	9.441
9.928	113.30	94.7014	10.3037	9.462
9.953	113.26	94.7005	10.3036	9.482
9.978	113.22	94.6997	10.3036	9.498
10.003	113.19	94.6989	10.3035	9.512
10.028	113.15	94.6981	10.3034	9.522
10.053	113.10	94.6974	10.3033	9.530
10.078	113.06	94.6967	10.3032	9.536
10.103	113.02	94.6960	10.3032	9.540
10.128	112.98	94.6953	10.3031	9.545
10.153	112.94	94.6946	10.3030	9.548
10.178	112.90	94.6940	10.3029	9.550
10.203	112.85	94.6934	10.3029	9.552
10.228	112.81	94.6928	10.3028	9.553
10.253	112.77	94.6922	10.3027	9.554
10.278	112.73	94.6917	10.3027	9.554
10.303	112.69	94.6912	10.3026	9.553
10.328	112.65	94.6907	10.3026	9.550
10.353	112.61	94.6902	10.3025	9.546
10.378	112.57	94.6898	10.3025	9.540
10.403	112.54	94.6894	10.3024	9.532
10.428	112.50	94.6890	10.3024	9.523
10.453	112.46	94.6886	10.3024	9.513
10.478	112.43	94.6882	10.3023	9.503
10.503	112.39	94.6878	10.3023	9.491
10.528	112.36	94.6874	10.3022	9.478
10.553	112.33	94.6870	10.3022	9.464
10.578	112.30	94.6867	10.3021	9.452
10.603	112.27	94.6863	10.3021	9.438
10.628	112.24	94.6860	10.3021	9.423
10.653	112.21	94.6857	10.3020	9.406
10.678	112.18	94.6854	10.3020	9.391
10.703	112.16	94.6850	10.3020	9.377
10.728	112.13	94.6848	10.3019	9.364
10.753	112.11	94.6845	10.3019	9.351
10.778	112.09	94.6842	10.3019	9.337
10.803	112.07	94.6840	10.3018	9.322
10.828	112.05	94.6837	10.3018	9.308
10.853	112.03	94.6835	10.3018	9.293
10.878	112.02	94.6833	10.3018	9.278
10.903	112.00	94.6831	10.3017	9.263
10.928	111.99	94.6829	10.3017	9.249
10.953	111.97	94.6827	10.3017	9.236
10.978	111.96	94.6825	10.3017	9.223
11.003	111.95	94.6823	10.3017	9.210
11.028	111.94	94.6821	10.3016	9.195
11.053	111.94	94.6820	10.3016	9.182
11.078	111.93	94.6818	10.3016	9.169
11.103	111.93	94.6816	10.3016	9.157
11.128	111.92	94.6814	10.3016	9.146
11.153	111.92	94.6812	10.3015	9.136
11.178	111.92	94.6811	10.3015	9.128
11.203	111.92	94.6809	10.3015	9.121
11.228	111.92	94.6808	10.3015	9.112
11.253	111.92	94.6806	10.3015	9.103
11.278	111.92	94.6805	10.3015	9.094
11.303	111.93	94.6803	10.3014	9.084
11.328	111.93	94.6801	10.3014	9.075
11.353	111.94	94.6800	10.3014	9.065
11.378	111.94	94.6798	10.3014	9.056
11.403	111.95	94.6796	10.3014	9.048
11.428	111.96	94.6794	10.3014	9.041
11.453	111.97	94.6793	10.3013	9.036
11.478	111.98	94.6791	10.3013	9.031
[...]
217.103	949.68	-0.3578	-0.0389	34.526
217.128	949.68	-0.3578	-0.0389	34.527
217.153	949.68	-0.3579	-0.0389	34.527
217.178	949.68	-0.3579	-0.0389	34.528
217.203	949.68	-0.3580	-0.0389	34.527
217.228	949.68	-0.3580	-0.0390	34.528
217.253	949.68	-0.3581	-0.0390	34.528
217.278	949.68	-0.3582	-0.0390	34.530
217.303	949.68	-0.3582	-0.0390	34.532
217.328	949.68	-0.3583	-0.0390	34.533
217.353	949.68	-0.3584	-0.0390	34.533
217.378	949.68	-0.3584	-0.0390	34.532
217.403	949.68	-0.3585	-0.0390	34.532
217.428	949.68	-0.3586	-0.0390	34.531
217.453	949.68	-0.3586	-0.0390	34.529
217.478	949.68	-0.3587	-0.0390	34.529
217.503	949.68	-0.3588	-0.0390	34.529
217.528	949.68	-0.3589	-0.0391	34.531
217.553	949.68	-0.3590	-0.0391	34.533
217.578	949.68	-0.3591	-0.0391	34.536
217.603	949.68	-0.3592	-0.0391	34.539
217.628	949.68	-0.3593	-0.0391	34.541
217.653	949.67	-0.3594	-0.0391	34.542
217.678	949.68	-0.3594	-0.0391	34.542
217.703	949.68	-0.3595	-0.0391	34.544
217.728	949.68	-0.3596	-0.0391	34.546
217.753	949.68	-0.3597	-0.0391	34.550
217.778	949.68	-0.3598	-0.0391	34.554
217.803	949.68	-0.3598	-0.0392	34.556
217.828	949.68	-0.3599	-0.0392	34.557
217.853	949.68	-0.3600	-0.0392	34.556
217.878	949.68	-0.3601	-0.0392	34.555
217.903	949.68	-0.3602	-0.0392	34.555
217.928	949.68	-0.3603	-0.0392	34.555
217.953	949.68	-0.3603	-0.0392	34.555
217.978	949.68	-0.3604	-0.0392	34.555
218.003	949.68	-0.3604	-0.0392	34.555
218.028	949.68	-0.3605	-0.0392	34.554
218.053	949.68	-0.3605	-0.0392	34.553
218.078	949.68	-0.3606	-0.0392	34.554
218.103	949.68	-0.3607	-0.0392	34.554
218.128	949.68	-0.3608	-0.0393	34.555
218.153	949.67	-0.3608	-0.0393	34.557
218.178	949.67	-0.3609	-0.0393	34.558
218.203	949.67	-0.3610	-0.0393	34.560
218.228	949.68	-0.3611	-0.0393	34.563
218.253	949.68	-0.3612	-0.0393	34.565
218.278	949.68	-0.3613	-0.0393	34.567
218.303	949.68	-0.3614	-0.0393	34.568
218.328	949.68	-0.3614	-0.0393	34.567
218.353	949.68	-0.3615	-0.0393	34.565
218.378	949.68	-0.3615	-0.0393	34.564
218.403	949.68	-0.3616	-0.0393	34.564
218.428	949.68	-0.3617	-0.0394	34.565
218.453	949.68	-0.3618	-0.0394	34.567
218.478	949.68	-0.3619	-0.0394	34.568
218.503	949.68	-0.3620	-0.0394	34.569
218.528	949.68	-0.3620	-0.0394	34.570
218.553	949.68	-0.3621	-0.0394	34.570
218.578	949.68	-0.3621	-0.0394	34.569
218.603	949.68	-0.3622	-0.0394	34.567
218.628	949.68	-0.3622	-0.0394	34.565
218.653	949.68	-0.3623	-0.0394	34.563
218.678	949.68	-0.3623	-0.0394	34.562
218.703	949.68	-0.3624	-0.0394	34.561
218.728	949.68	-0.3624	-0.0394	34.559
218.753	949.68	-0.3625	-0.0394	34.557
218.778	949.68	-0.3627	-0.0395	34.554
218.803	949.68	-0.3628	-0.0395	34.552
218.828	949.68	-0.3629	-0.0395	34.550
218.853	949.68	-0.3629	-0.0395	34.550
218.878	949.68	-0.3630	-0.0395	34.550
218.903	949.68	-0.3631	-0.0395	34.549
218.928	949.68	-0.3632	-0.0395	34.548
218.953	949.68	-0.3632	-0.0395	34.547
218.978	949.68	-0.3633	-0.0395	34.548
219.003	949.68	-0.3634	-0.0395	34.549
219.028	949.68	-0.3634	-0.0395	34.550
219.053	949.68	-0.3635	-0.0396	34.551
219.078	949.68	-0.3636	-0.0396	34.552
219.103	949.68	-0.3637	-0.0396	34.552
219.128	949.68	-0.3638	-0.0396	34.551
219.153	949.68	-0.3638	-0.0396	34.550
219.178	949.67	-0.3639	-0.0396	34.547
219.203	949.67	-0.3639	-0.0396	34.545
219.228	949.67	-0.3640	-0.0396	34.543
219.253	949.67	-0.3641	-0.0396	34.541
219.278	949.67	-0.3642	-0.0396	34.539
219.303	949.67	-0.3643	-0.0396	34.539
219.328	949.67	-0.3644	-0.0396	34.539
219.353	949.67	-0.3645	-0.0397	34.540
219.378	949.67	-0.3645	-0.0397	34.541
219.403	949.67	-0.3646	-0.0397	34.543
219.428	949.67	-0.3647	-0.0397	34.543
219.453	949.67	-0.3648	-0.0397	34.541
219.478	949.67	-0.3649	-0.0397	34.539
219.503	949.67	-0.3650	-0.0397	34.538
219.528	949.67	-0.3650	-0.0397	34.538
219.553	949.67	-0.3651	-0.0397	34.539
219.578	949.67	-0.3652	-0.0397	34.539
219.603	949.67	-0.3652	-0.0397	34.540
219.628	949.67	-0.3653	-0.0397	34.540
219.653	949.67	-0.3654	-0.0398	34.540
219.678	949.67	-0.3655	-0.0398	34.540
219.703	949.67	-0.3656	-0.0398	34.541
219.728	949.67	-0.3656	-0.0398	34.542
219.753	949.67	-0.3657	-0.0398	34.543
219.778	949.67	-0.3658	-0.0398	34.544
219.803	949.67	-0.3658	-0.0398	34.543
219.828	949.67	-0.3659	-0.0398	34.542
219.853	949.67	-0.3660	-0.0398	34.543
219.878	949.67	-0.3661	-0.0398	34.544
219.903	949.67	-0.3662	-0.0398	34.545
219.928	949.67	-0.3663	-0.0399	34.545
219.953	949.67	-0.3663	-0.0399	34.545
219.978	949.67	-0.3664	-0.0399	34.545
220.003	949.67	-0.3664	-0.0399	34.546
220.028	949.67	-0.3665	-0.0399	34.546
220.053	949.67	-0.3666	-0.0399	34.547
220.078	949.67	-0.3666	-0.0399	34.548
220.103	949.67	-0.3667	-0.0399	34.549
220.128	949.67	-0.3667	-0.0399	34.550
220.153	949.67	-0.3668	-0.0399	34.550
220.178	949.67	-0.3669	-0.0399	34.550
220.203	949.67	-0.3670	-0.0399	34.551
220.228	949.67	-0.3670	-0.0399	34.551
220.253	949.67	-0.3671	-0.0399	34.552
220.278	949.67	-0.3672	-0.0399	34.552
220.303	949.67	-0.3672	-0.0400	34.552
220.328	949.67	-0.3673	-0.0400	34.552
220.353	949.67	-0.3674	-0.0400	34.553
220.378	949.67	-0.3675	-0.0400	34.554
220.403	949.67	-0.3675	-0.0400	34.556
220.428	949.67	-0.3676	-0.0400	34.557
220.453	949.67	-0.3676	-0.0400	34.559
220.478	949.67	-0.3677	-0.0400	34.560
220.503	949.67	-0.3677	-0.0400	34.562
220.528	949.67	-0.3678	-0.0400	34.563
220.553	949.67	-0.3678	-0.0400	34.564
220.578	949.67	-0.3679	-0.0400	34.566
220.603	949.67	-0.3679	-0.0400	34.567
220.628	949.67	-0.3680	-0.0400	34.566
220.653	949.67	-0.3681	-0.0400	34.565
220.678	949.67	-0.3682	-0.0401	34.563
220.703	949.67	-0.3682	-0.0401	34.564
220.728	949.67	-0.3683	-0.0401	34.566
220.753	949.67	-0.3684	-0.0401	34.570
220.778	949.67	-0.3685	-0.0401	34.572
220.803	949.67	-0.3686	-0.0401	34.574
220.828	949.67	-0.3686	-0.0401	34.575
220.853	949.67	-0.3687	-0.0401	34.575
220.878	949.67	-0.3688	-0.0401	34.574
220.903	949.67	-0.3689	-0.0401	34.573
220.928	949.67	-0.3689	-0.0401	34.571
220.953	949.67	-0.3690	-0.0401	34.568
220.978	949.67	-0.3691	-0.0402	34.565
221.003	949.67	-0.3691	-0.0402	34.564
221.028	949.67	-0.3692	-0.0402	34.565
221.053	949.67	-0.3693	-0.0402	34.567
221.078	949.67	-0.3694	-0.0402	34.568
221.103	949.67	-0.3695	-0.0402	34.569
221.128	949.67	-0.3696	-0.0402	34.569
221.153	949.67	-0.3697	-0.0402	34.569
221.178	949.67	-0.3698	-0.0402	34.568
221.203	949.67	-0.3698	-0.0402	34.567
221.228	949.67	-0.3699	-0.0402	34.566
221.253	949.67	-0.3700	-0.0403	34.565
221.278	949.67	-0.3701	-0.0403	34.565
221.303	949.67	-0.3702	-0.0403	34.567
221.328	949.67	-0.3702	-0.0403	34.568
221.353	949.67	-0.3703	-0.0403	34.569
221.378	949.67	-0.3704	-0.0403	34.571
221.403	949.67	-0.3704	-0.0403	34.574
221.428	949.67	-0.3705	-0.0403	34.580
221.453	949.67	-0.3706	-0.0403	34.585
221.478	949.67	-0.3707	-0.0403	34.589
221.503	949.67	-0.3708	-0.0403	34.591
221.528	949.67	-0.3708	-0.0403	34.593
221.553	949.67	-0.3709	-0.0404	34.594
221.578	949.67	-0.3709	-0.0404	34.595
221.603	949.67	-0.3709	-0.0404	34.594
221.628	949.67	-0.3710	-0.0404	34.593
221.653	949.67	-0.3711	-0.0404	34.591
221.678	949.67	-0.3712	-0.0404	34.589
221.703	949.67	-0.3713	-0.0404	34.588
221.728	949.67	-0.3715	-0.0404	34.586
221.753	949.67	-0.3716	-0.0404	34.584
221.778	949.67	-0.3717	-0.0404	34.583
221.803	949.67	-0.3717	-0.0404	34.583
221.828	949.67	-0.3718	-0.0405	34.584
221.853	949.67	-0.3719	-0.0405	34.585
221.878	949.67	-0.3721	-0.0405	34.589
221.903	949.67	-0.3722	-0.0405	34.593
221.928	949.67	-0.3723	-0.0405	34.598
221.953	949.67	-0.3724	-0.0405	34.602
221.978	949.67	-0.3724	-0.0405	34.605
222.003	949.67	-0.3725	-0.0405	34.608
222.028	949.67	-0.3726	-0.0405	34.610
222.053	949.67	-0.3727	-0.0405	34.612
222.078	949.67	-0.3728	-0.0406	34.614
222.103	949.67	-0.3729	-0.0406	34.618
222.128	949.67	-0.3730	-0.0406	34.623
222.153	949.67	-0.3731	-0.0406	34.627
222.178	949.67	-0.3732	-0.0406	34.629
222.203	949.67	-0.3733	-0.0406	34.630
222.228	949.67	-0.3734	-0.0406	34.631
222.253	949.67	-0.3735	-0.0406	34.631
222.278	949.67	-0.3736	-0.0406	34.631
222.303	949.67	-0.3736	-0.0407	34.631
222.328	949.67	-0.3737	-0.0407	34.631
222.353	949.67	-0.3737	-0.0407	34.632
222.378	949.67	-0.3738	-0.0407	34.633
222.403	949.67	-0.3739	-0.0407	34.634
222.428	949.67	-0.3740	-0.0407	34.635
222.453	949.67	-0.3741	-0.0407	34.636
222.478	949.67	-0.3742	-0.0407	34.637
222.503	949.67	-0.3743	-0.0407	34.638
222.528	949.67	-0.3743	-0.0407	34.639
222.553	949.67	-0.3744	-0.0407	34.641
222.578	949.67	-0.3744	-0.0407	34.641
222.603	949.67	-0.3745	-0.0407	34.642
222.628	949.67	-0.3746	-0.0408	34.643
222.653	949.67	-0.3746	-0.0408	34.644
222.678	949.67	-0.3747	-0.0408	34.644
222.703	949.67	-0.3747	-0.0408	34.644
222.728	949.67	-0.3748	-0.0408	34.644
222.753	949.67	-0.3748	-0.0408	34.645
222.778	949.67	-0.3748	-0.0408	34.645
222.803	949.67	-0.3749	-0.0408	34.647
222.828	949.67	-0.3749	-0.0408	34.649
222.853	949.67	-0.3750	-0.0408	34.651
222.878	949.67	-0.3751	-0.0408	34.652
222.903	949.67	-0.3752	-0.0408	34.653
222.928	949.67	-0.3753	-0.0408	34.654
222.953	949.67	-0.3753	-0.0408	34.654
222.978	949.67	-0.3754	-0.0408	34.655
223.003	949.67	-0.3755	-0.0409	34.655
223.028	949.67	-0.3756	-0.0409	34.654
223.053	949.67	-0.3756	-0.0409	34.654
223.078	949.67	-0.3757	-0.0409	34.654
223.103	949.67	-0.3757	-0.0409	34.655
223.128	949.67	-0.3758	-0.0409	34.656
223.153	949.67	-0.3759	-0.0409	34.657
223.178	949.67	-0.3760	-0.0409	34.659
223.203	949.67	-0.3761	-0.0409	34.661
223.228	949.67	-0.3762	-0.0409	34.663
223.253	949.67	-0.3764	-0.0409	34.665
223.278	949.67	-0.3765	-0.0410	34.667
223.303	949.67	-0.3766	-0.0410	34.667
223.328	949.67	-0.3767	-0.0410	34.668
223.353	949.67	-0.3767	-0.0410	34.669
223.378	949.67	-0.3768	-0.0410	34.670
223.403	949.67	-0.3769	-0.0410	34.672
223.428	949.67	-0.3770	-0.0410	34.676
223.453	949.67	-0.3771	-0.0410	34.680
223.478	949.67	-0.3772	-0.0410	34.684
223.503	949.67	-0.3773	-0.0410	34.686
223.528	949.67	-0.3773	-0.0410	34.687
223.553	949.67	-0.3773	-0.0411	34.688
223.578	949.67	-0.3774	-0.0411	34.690
223.603	949.67	-0.3774	-0.0411	34.692
223.628	949.67	-0.3775	-0.0411	34.693
223.653	949.67	-0.3776	-0.0411	34.695
223.678	949.67	-0.3777	-0.0411	34.695
223.703	949.67	-0.3777	-0.0411	34.695
223.728	949.67	-0.3778	-0.0411	34.695
223.753	949.67	-0.3779	-0.0411	34.694
223.778	949.67	-0.3779	-0.0411	34.695
223.803	949.67	-0.3780	-0.0411	34.694
223.828	949.67	-0.3781	-0.0411	34.694
223.853	949.67	-0.3781	-0.0411	34.694
223.878	949.67	-0.3782	-0.0411	34.694
223.903	949.67	-0.3782	-0.0411	34.696
223.928	949.67	-0.3783	-0.0412	34.698
223.953	949.67	-0.3784	-0.0412	34.702
223.978	949.67	-0.3784	-0.0412	34.706
224.003	949.67	-0.3785	-0.0412	34.709
224.028	949.67	-0.3785	-0.0412	34.712
224.053	949.67	-0.3785	-0.0412	34.718
224.078	949.67	-0.3786	-0.0412	34.724
224.103	949.67	-0.3786	-0.0412	34.728
224.128	949.67	-0.3787	-0.0412	34.729
224.153	949.67	-0.3788	-0.0412	34.729
224.178	949.67	-0.3789	-0.0412	34.728
224.203	949.67	-0.3789	-0.0412	34.727
224.228	949.67	-0.3789	-0.0412	34.726
224.253	949.67	-0.3789	-0.0412	34.725
224.278	949.67	-0.3790	-0.0412	34.724
224.303	949.67	-0.3790	-0.0412	34.723
224.328	949.67	-0.3791	-0.0412	34.723
224.353	949.67	-0.3792	-0.0413	34.724
224.378	949.67	-0.3793	-0.0413	34.724
224.403	949.67	-0.3793	-0.0413	34.725
224.428	949.67	-0.3794	-0.0413	34.725
224.453	949.67	-0.3795	-0.0413	34.725
224.478	949.67	-0.3796	-0.0413	34.725
224.503	949.67	-0.3797	-0.0413	34.727
224.528	949.67	-0.3797	-0.0413	34.728
224.553	949.67	-0.3798	-0.0413	34.729
224.578	949.67	-0.3799	-0.0413	34.731
224.603	949.67	-0.3800	-0.0413	34.732
224.628	949.67	-0.3801	-0.0414	34.734
224.653	949.67	-0.3802	-0.0414	34.735
224.678	949.67	-0.3803	-0.0414	34.737
224.703	949.67	-0.3803	-0.0414	34.738
224.728	949.67	-0.3803	-0.0414	34.739
224.753	949.67	-0.3804	-0.0414	34.740
224.778	949.67	-0.3805	-0.0414	34.742
224.803	949.67	-0.3806	-0.0414	34.744
224.828	949.67	-0.3807	-0.0414	34.747
224.853	949.67	-0.3808	-0.0414	34.749
224.878	949.67	-0.3809	-0.0414	34.751
224.903	949.67	-0.3810	-0.0415	34.753
224.928	949.67	-0.3811	-0.0415	34.754
224.953	949.67	-0.3812	-0.0415	34.756
224.978	949.67	-0.3813	-0.0415	34.758
225.003	949.67	-0.3814	-0.0415	34.760
225.028	949.67	-0.3815	-0.0415	34.763
225.053	949.67	-0.3816	-0.0415	34.767
225.078	949.67	-0.3817	-0.0415	34.772
225.103	949.67	-0.3818	-0.0415	34.777
225.128	949.67	-0.3819	-0.0415	34.780
225.153	949.67	-0.3820	-0.0416	34.782
225.178	949.67	-0.3821	-0.0416	34.782
225.203	949.67	-0.3822	-0.0416	34.783
225.228	949.67	-0.3823	-0.0416	34.783
225.253	949.67	-0.3823	-0.0416	34.783
225.278	949.67	-0.3824	-0.0416	34.782
225.303	949.67	-0.3825	-0.0416	34.782
225.328	949.67	-0.3826	-0.0416	34.781
225.353	949.67	-0.3826	-0.0416	34.781
225.378	949.67	-0.3827	-0.0416	34.782
225.403	949.67	-0.3828	-0.0416	34.784
225.428	949.67	-0.3829	-0.0417	34.788
225.453	949.67	-0.3830	-0.0417	34.792
225.478	949.67	-0.3831	-0.0417	34.795
225.503	949.67	-0.3831	-0.0417	34.797
225.528	949.67	-0.3832	-0.0417	34.798
225.553	949.67	-0.3833	-0.0417	34.800
225.578	949.67	-0.3833	-0.0417	34.801
225.603	949.67	-0.3834	-0.0417	34.802
225.628	949.67	-0.3835	-0.0417	34.803
225.653	949.67	-0.3835	-0.0417	34.803
225.678	949.67	-0.3836	-0.0417	34.803
225.703	949.67	-0.3837	-0.0418	34.804
225.728	949.67	-0.3838	-0.0418	34.804
225.753	949.67	-0.3839	-0.0418	34.805
225.778	949.67	-0.3840	-0.0418	34.807
225.803	949.67	-0.3841	-0.0418	34.809
225.828	949.67	-0.3841	-0.0418	34.812
225.853	949.67	-0.3842	-0.0418	34.814
225.878	949.67	-0.3843	-0.0418	34.818
225.903	949.67	-0.3844	-0.0418	34.821
225.928	949.67	-0.3845	-0.0418	34.825
225.953	949.67	-0.3845	-0.0418	34.830
225.978	949.67	-0.3846	-0.0418	34.835
226.003	949.67	-0.3847	-0.0419	34.841
226.028	949.67	-0.3848	-0.0419	34.846
226.053	949.67	-0.3848	-0.0419	34.848
226.078	949.67	-0.3849	-0.0419	34.849
226.103	949.67	-0.3850	-0.0419	34.850
226.128	949.67	-0.3850	-0.0419	34.851
226.153	949.67	-0.3850	-0.0419	34.853
226.178	949.67	-0.3851	-0.0419	34.854
226.203	949.67	-0.3851	-0.0419	34.855
226.228	949.67	-0.3851	-0.0419	34.855
226.253	949.67	-0.3852	-0.0419	34.855
226.278	949.67	-0.3852	-0.0419	34.854
226.303	949.67	-0.3853	-0.0419	34.854
226.328	949.67	-0.3854	-0.0419	34.853
226.353	949.67	-0.3855	-0.0419	34.854
226.378	949.67	-0.3856	-0.0420	34.854
226.403	949.67	-0.3856	-0.0420	34.855
226.428	949.67	-0.3857	-0.0420	34.856
226.453	949.67	-0.3858	-0.0420	34.857
226.478	949.67	-0.3859	-0.0420	34.857
226.503	949.67	-0.3859	-0.0420	34.858
226.528	949.67	-0.3860	-0.0420	34.858
226.553	949.67	-0.3861	-0.0420	34.859
226.578	949.67	-0.3861	-0.0420	34.860
226.603	949.67	-0.3862	-0.0420	34.859
226.628	949.67	-0.3862	-0.0420	34.860
226.653	949.67	-0.3863	-0.0420	34.861
226.678	949.67	-0.3864	-0.0420	34.866
226.703	949.67	-0.3865	-0.0420	34.870
226.728	949.67	-0.3865	-0.0421	34.875
226.753	949.67	-0.3866	-0.0421	34.878
226.778	949.67	-0.3867	-0.0421	34.879
226.803	949.67	-0.3867	-0.0421	34.879
226.828	949.67	-0.3868	-0.0421	34.879
226.853	949.67	-0.3869	-0.0421	34.879
226.878	949.67	-0.3869	-0.0421	34.880
226.903	949.67	-0.3870	-0.0421	34.879
226.928	949.67	-0.3871	-0.0421	34.878
226.953	949.67	-0.3872	-0.0421	34.877
226.978	949.67	-0.3873	-0.0421	34.876
227.003	949.67	-0.3873	-0.0421	34.876
227.028	949.67	-0.3874	-0.0422	34.876
227.053	949.67	-0.3875	-0.0422	34.876
227.078	949.67	-0.3876	-0.0422	34.875
227.103	949.67	-0.3877	-0.0422	34.875
227.128	949.67	-0.3877	-0.0422	34.875
227.153	949.67	-0.3878	-0.0422	34.875
227.178	949.67	-0.3878	-0.0422	34.875
227.203	949.67	-0.3879	-0.0422	34.877
227.228	949.67	-0.3879	-0.0422	34.878
227.253	949.67	-0.3880	-0.0422	34.879
227.278	949.67	-0.3881	-0.0422	34.881
227.303	949.67	-0.3881	-0.0422	34.883
227.328	949.67	-0.3882	-0.0422	34.885
227.353	949.67	-0.3883	-0.0423	34.887
227.378	949.67	-0.3885	-0.0423	34.890
227.403	949.67	-0.3886	-0.0423	34.892
227.428	949.67	-0.3887	-0.0423	34.894
227.453	949.67	-0.3889	-0.0423	34.896
227.478	949.67	-0.3890	-0.0423	34.897
227.503	949.67	-0.3891	-0.0423	34.898
227.528	949.67	-0.3892	-0.0423	34.898
227.553	949.67	-0.3893	-0.0424	34.899
227.578	949.67	-0.3894	-0.0424	34.899
227.603	949.67	-0.3895	-0.0424	34.898
227.628	949.67	-0.3895	-0.0424	34.898
227.653	949.67	-0.3896	-0.0424	34.898
227.678	949.67	-0.3897	-0.0424	34.900
227.703	949.67	-0.3899	-0.0424	34.903
227.728	949.67	-0.3899	-0.0424	34.906
227.753	949.67	-0.3900	-0.0424	34.909
227.778	949.67	-0.3901	-0.0424	34.912
227.803	949.67	-0.3902	-0.0425	34.914
227.828	949.67	-0.3903	-0.0425	34.916
227.853	949.67	-0.3904	-0.0425	34.916
227.878	949.67	-0.3904	-0.0425	34.916
227.903	949.67	-0.3905	-0.0425	34.915
227.928	949.67	-0.3905	-0.0425	34.915
227.953	949.67	-0.3906	-0.0425	34.915
227.978	949.67	-0.3907	-0.0425	34.915
228.003	949.67	-0.3908	-0.0425	34.915
228.028	949.67	-0.3909	-0.0425	34.914
228.053	949.67	-0.3909	-0.0425	34.913
228.078	949.67	-0.3910	-0.0425	34.913
228.103	949.67	-0.3910	-0.0425	34.913
228.128	949.67	-0.3911	-0.0426	34.915
228.153	949.67	-0.3911	-0.0426	34.918
228.178	949.67	-0.3912	-0.0426	34.920
228.203	949.67	-0.3913	-0.0426	34.921
228.228	949.67	-0.3914	-0.0426	34.922
228.253	949.67	-0.3915	-0.0426	34.925
228.278	949.67	-0.3915	-0.0426	34.928
228.303	949.67	-0.3916	-0.0426	34.931
228.328	949.67	-0.3916	-0.0426	34.933
228.353	949.67	-0.3917	-0.0426	34.934
228.378	949.67	-0.3919	-0.0426	34.936
228.403	949.67	-0.3920	-0.0426	34.938
228.428	949.67	-0.3921	-0.0427	34.941
228.453	949.67	-0.3922	-0.0427	34.945
228.478	949.67	-0.3923	-0.0427	34.948
228.503	949.67	-0.3923	-0.0427	34.951
228.528	949.67	-0.3924	-0.0427	34.953
228.553	949.67	-0.3926	-0.0427	34.954
228.578	949.67	-0.3927	-0.0427	34.955
228.603	949.67	-0.3927	-0.0427	34.954
228.628	949.67	-0.3928	-0.0427	34.954
228.653	949.67	-0.3929	-0.0427	34.954
228.678	949.67	-0.3930	-0.0428	34.955
228.703	949.67	-0.3930	-0.0428	34.956
228.728	949.67	-0.3931	-0.0428	34.959
228.753	949.67	-0.3931	-0.0428	34.961
228.778	949.67	-0.3932	-0.0428	34.963
228.803	949.67	-0.3933	-0.0428	34.963
228.828	949.67	-0.3933	-0.0428	34.964
228.853	949.67	-0.3934	-0.0428	34.965
228.878	949.67	-0.3935	-0.0428	34.967
228.903	949.67	-0.3936	-0.0428	34.970
228.928	949.67	-0.3937	-0.0428	34.972
228.953	949.67	-0.3938	-0.0428	34.973
228.978	949.67	-0.3939	-0.0429	34.973
229.003	949.67	-0.3940	-0.0429	34.973
229.028	949.67	-0.3941	-0.0429	34.975
229.053	949.67	-0.3942	-0.0429	34.976
229.078	949.67	-0.3944	-0.0429	34.977
229.103	949.67	-0.3945	-0.0429	34.978
229.128	949.67	-0.3946	-0.0429	34.977
229.153	949.67	-0.3947	-0.0429	34.978
229.178	949.67	-0.3948	-0.0430	34.979
229.203	949.67	-0.3949	-0.0430	34.981
229.228	949.67	-0.3949	-0.0430	34.983
229.253	949.67	-0.3950	-0.0430	34.985
229.278	949.67	-0.3950	-0.0430	34.985
229.303	949.67	-0.3950	-0.0430	34.986
229.328	949.67	-0.3951	-0.0430	34.987
229.353	949.67	-0.3951	-0.0430	34.989
229.378	949.67	-0.3952	-0.0430	34.990
229.403	949.67	-0.3953	-0.0430	34.992
229.428	949.67	-0.3953	-0.0430	34.992
229.453	949.67	-0.3954	-0.0430	34.993
229.478	949.67	-0.3954	-0.0430	34.994
229.503	949.67	-0.3955	-0.0430	34.998
229.528	949.67	-0.3955	-0.0430	35.003
229.553	949.67	-0.3956	-0.0430	35.008
229.578	949.67	-0.3957	-0.0431	35.013
229.603	949.67	-0.3958	-0.0431	35.019
229.628	949.67	-0.3959	-0.0431	35.024
229.653	949.67	-0.3959	-0.0431	35.029
229.678	949.67	-0.3960	-0.0431	35.034
229.703	949.67	-0.3960	-0.0431	35.038
229.728	949.67	-0.3961	-0.0431	35.042
229.753	949.67	-0.3962	-0.0431	35.045
229.778	949.67	-0.3962	-0.0431	35.046
229.803	949.67	-0.3963	-0.0431	35.048
229.828	949.67	-0.3964	-0.0431	35.048
229.853	949.67	-0.3965	-0.0431	35.048
229.878	949.67	-0.3966	-0.0432	35.048
229.903	949.67	-0.3967	-0.0432	35.048
229.928	949.67	-0.3968	-0.0432	35.048
229.953	949.67	-0.3969	-0.0432	35.050
229.978	949.67	-0.3970	-0.0432	35.052
230.003	949.67	-0.3970	-0.0432	35.054
230.028	949.67	-0.3971	-0.0432	35.055
230.053	949.67	-0.3972	-0.0432	35.056
230.078	949.67	-0.3972	-0.0432	35.057
230.103	949.67	-0.3973	-0.0432	35.057
230.128	949.67	-0.3973	-0.0432	35.058
230.153	949.68	-0.3973	-0.0432	35.058
230.178	949.68	-0.3974	-0.0432	35.059
230.203	949.68	-0.3974	-0.0432	35.061
230.228		-0.3975	-0.0432
230.245		-0.3975	-0.0432