File: example/soliddist/SDb_3.txt
Time	Temperature	Weight	Weight	Heat Flow
min	°C	%	mg	mW
0.003		100.0625	4.1708
0.012		100.1268	4.1735
0.020		100.1742	4.1754
0.028		100.2069	4.1768
0.037		100.2292	4.1777
0.045	24.57	100.2447	4.1784	-24.118
0.053	24.66	100.2557	4.1788	-24.070
0.062	24.75	100.2638	4.1792	-24.022
0.070	24.83	100.2697	4.1794	-23.976
0.078	24.92	100.2738	4.1796	-23.930
0.087	25.00	100.2767	4.1797	-23.883
0.095	25.09	100.2792	4.1798	-23.838
0.103	25.17	100.2812	4.1799	-23.793
0.112	25.26	100.2827	4.1800	-23.749
0.120	25.34	100.2838	4.1800	-23.705
0.128	25.42	100.2845	4.1800	-23.662
0.137	25.50	100.2847	4.1801	-23.620
0.145	25.59	100.2845	4.1800	-23.578
0.153	25.67	100.2839	4.1800	-23.537
0.162	25.75	100.2829	4.1800	-23.497
0.170	25.83	100.2816	4.1799	-23.457
0.178	25.91	100.2799	4.1799	-23.417
0.187	25.99	100.2778	4.1798	-23.378
0.195	26.07	100.2754	4.1797	-23.339
0.203	26.15	100.2726	4.1795	-23.301
0.212	26.23	100.2694	4.1794	-23.263
0.220	26.31	100.2660	4.1793	-23.226
0.228	26.38	100.2622	4.1791	-23.190
0.237	26.46	100.2581	4.1789	-23.154
0.245	26.54	100.2538	4.1788	-23.118
0.253	26.61	100.2490	4.1786	-23.082
0.262	26.69	100.2440	4.1784	-23.048
0.270	26.76	100.2386	4.1781	-23.013
0.278	26.84	100.2330	4.1779	-22.978
0.287	26.91	100.2270	4.1776	-22.944
0.295	26.99	100.2207	4.1774	-22.911
0.303	27.06	100.2142	4.1771	-22.877
0.312	27.13	100.2073	4.1768	-22.844
0.320	27.21	100.2001	4.1765	-22.811
0.328	27.28	100.1926	4.1762	-22.778
0.337	27.35	100.1849	4.1759	-22.747
0.345	27.42	100.1769	4.1756	-22.715
0.353	27.49	100.1686	4.1752	-22.683
0.362	27.56	100.1600	4.1749	-22.652
0.370	27.63	100.1513	4.1745	-22.622
0.378	27.70	100.1422	4.1741	-22.591
0.387	27.77	100.1330	4.1737	-22.560
0.395	27.84	100.1235	4.1733	-22.530
0.403	27.91	100.1138	4.1729	-22.499
0.412	27.98	100.1039	4.1725	-22.470
0.420	28.04	100.0938	4.1721	-22.440
0.428	28.11	100.0835	4.1717	-22.410
0.437	28.18	100.0730	4.1712	-22.380
0.445	28.24	100.0623	4.1708	-22.351
0.453	28.31	100.0514	4.1703	-22.322
0.462	28.38	100.0404	4.1699	-22.293
0.470	28.44	100.0292	4.1694	-22.265
0.478	28.51	100.0178	4.1689	-22.237
0.487	28.57	100.0063	4.1684	-22.209
0.495	28.63	99.9946	4.1680	-22.181
0.503	28.70	99.9828	4.1675	-22.153
0.512	28.76	99.9708	4.1670	-22.126
0.520	28.82	99.9587	4.1665	-22.099
0.528	28.89	99.9465	4.1660	-22.072
0.537	28.95	99.9342	4.1654	-22.044
0.545	29.01	99.9217	4.1649	-22.017
0.553	29.07	99.9092	4.1644	-21.990
0.562	29.13	99.8965	4.1639	-21.963
0.570	29.19	99.8838	4.1633	-21.935
0.578	29.25	99.8710	4.1628	-21.908
0.587	29.31	99.8581	4.1623	-21.881
0.595	29.37	99.8451	4.1617	-21.854
0.603	29.43	99.8320	4.1612	-21.827
0.612	29.49	99.8189	4.1606	-21.800
0.620	29.54	99.8057	4.1601	-21.774
0.628	29.60	99.7925	4.1595	-21.747
0.637	29.66	99.7792	4.1590	-21.720
0.645	29.72	99.7659	4.1584	-21.693
0.653	29.77	99.7525	4.1579	-21.667
0.662	29.83	99.7390	4.1573	-21.641
0.670	29.89	99.7256	4.1567	-21.615
0.678	29.94	99.7121	4.1562	-21.589
0.687	30.00	99.6985	4.1556	-21.562
0.695	30.05	99.6850	4.1551	-21.536
0.703	30.11	99.6714	4.1545	-21.510
0.712	30.16	99.6578	4.1539	-21.484
0.720	30.22	99.6441	4.1534	-21.458
0.728	30.27	99.6305	4.1528	-21.433
0.737	30.32	99.6168	4.1522	-21.408
0.745	30.38	99.6031	4.1516	-21.382
0.753	30.43	99.5894	4.1511	-21.356
0.762	30.48	99.5757	4.1505	-21.331
0.770	30.53	99.5620	4.1499	-21.306
0.778	30.58	99.5482	4.1494	-21.280
0.787	30.64	99.5345	4.1488	-21.254
0.795	30.69	99.5207	4.1482	-21.229
0.803	30.74	99.5070	4.1476	-21.204
0.812	30.79	99.4933	4.1471	-21.177
0.820	30.84	99.4795	4.1465	-21.152
0.828	30.89	99.4658	4.1459	-21.126
0.837	30.95	99.4521	4.1453	-21.101
0.845	31.00	99.4384	4.1448	-21.075
0.853	31.05	99.4248	4.1442	-21.050
0.862	31.10	99.4111	4.1436	-21.025
0.870	31.15	99.3975	4.1431	-21.001
0.878	31.20	99.3839	4.1425	-20.976
0.887	31.25	99.3704	4.1419	-20.951
0.895	31.30	99.3568	4.1414	-20.926
0.903	31.34	99.3433	4.1408	-20.901
0.912	31.39	99.3299	4.1403	-20.877
0.920	31.44	99.3164	4.1397	-20.852
0.928	31.49	99.3029	4.1391	-20.827
0.937	31.54	99.2895	4.1386	-20.802
0.945	31.59	99.2761	4.1380	-20.777
0.953	31.64	99.2628	4.1375	-20.752
0.962	31.69	99.2495	4.1369	-20.727
0.970	31.74	99.2362	4.1363	-20.702
0.978	31.79	99.2229	4.1358	-20.677
0.987	31.84	99.2097	4.1352	-20.652
0.995	31.89	99.1966	4.1347	-20.628
1.003	31.94	99.1835	4.1342	-20.603
1.012	31.99	99.1705	4.1336	-20.579
1.020	32.04	99.1575	4.1331	-20.554
1.028	32.09	99.1446	4.1325	-20.531
1.037	32.14	99.1317	4.1320	-20.506
1.045	32.19	99.1189	4.1315	-20.482
1.053	32.24	99.1062	4.1309	-20.458
1.062	32.29	99.0935	4.1304	-20.434
1.070	32.34	99.0809	4.1299	-20.410
1.078	32.39	99.0683	4.1294	-20.386
1.087	32.44	99.0558	4.1288	-20.362
1.095	32.49	99.0433	4.1283	-20.339
1.103	32.54	99.0309	4.1278	-20.315
1.112	32.59	99.0185	4.1273	-20.291
1.120	32.65	99.0062	4.1268	-20.267
1.128	32.70	98.9940	4.1263	-20.244
1.137	32.75	98.9818	4.1257	-20.220
1.145	32.80	98.9696	4.1252	-20.197
1.153	32.85	98.9576	4.1247	-20.173
1.162	32.91	98.9455	4.1242	-20.149
1.170	32.96	98.9336	4.1237	-20.125
1.178	33.01	98.9217	4.1232	-20.100
1.187	33.07	98.9099	4.1227	-20.076
1.195	33.12	98.8981	4.1223	-20.052
1.203	33.17	98.8864	4.1218	-20.027
1.212	33.23	98.8748	4.1213	-20.003
1.220	33.28	98.8633	4.1208	-19.978
1.228	33.34	98.8518	4.1203	-19.954
1.237	33.39	98.8403	4.1198	-19.930
1.245	33.44	98.8289	4.1194	-19.905
1.253	33.50	98.8176	4.1189	-19.880
1.262	33.55	98.8063	4.1184	-19.856
1.270	33.61	98.7951	4.1180	-19.832
1.278	33.67	98.7839	4.1175	-19.807
1.287	33.72	98.7727	4.1170	-19.783
1.295	33.78	98.7616	4.1166	-19.758
1.303	33.84	98.7505	4.1161	-19.733
1.312	33.89	98.7395	4.1156	-19.707
1.320	33.95	98.7285	4.1152	-19.682
1.328	34.01	98.7176	4.1147	-19.657
1.337	34.06	98.7067	4.1143	-19.631
1.345	34.12	98.6959	4.1138	-19.605
1.353	34.18	98.6851	4.1134	-19.579
1.362	34.24	98.6743	4.1129	-19.553
1.370	34.30	98.6636	4.1125	-19.526
1.378	34.36	98.6530	4.1120	-19.500
1.387	34.41	98.6423	4.1116	-19.474
1.395	34.47	98.6318	4.1112	-19.447
1.403	34.54	98.6212	4.1107	-19.420
1.412	34.60	98.6107	4.1103	-19.393
1.420	34.66	98.6002	4.1098	-19.367
1.428	34.72	98.5898	4.1094	-19.340
1.437	34.78	98.5794	4.1090	-19.313
1.445	34.84	98.5690	4.1085	-19.286
1.453	34.90	98.5587	4.1081	-19.258
1.462	34.96	98.5484	4.1077	-19.230
1.470	35.03	98.5381	4.1073	-19.201
1.478	35.09	98.5279	4.1068	-19.173
1.487	35.15	98.5177	4.1064	-19.144
1.495	35.22	98.5076	4.1060	-19.115
1.503	35.28	98.4975	4.1056	-19.086
1.512	35.34	98.4874	4.1051	-19.057
1.520	35.41	98.4774	4.1047	-19.027
1.528	35.47	98.4674	4.1043	-18.997
1.537	35.54	98.4574	4.1039	-18.967
1.545	35.60	98.4475	4.1035	-18.937
1.553	35.67	98.4376	4.1031	-18.907
1.562	35.73	98.4277	4.1026	-18.877
1.570	35.80	98.4178	4.1022	-18.846
1.578	35.87	98.4080	4.1018	-18.815
1.587	35.93	98.3982	4.1014	-18.784
1.595	36.00	98.3884	4.1010	-18.753
1.603	36.07	98.3786	4.1006	-18.722
1.612	36.14	98.3689	4.1002	-18.690
1.620	36.20	98.3592	4.0998	-18.659
1.628	36.27	98.3494	4.0994	-18.628
1.637	36.34	98.3398	4.0990	-18.597
1.645	36.41	98.3301	4.0986	-18.565
1.653	36.48	98.3205	4.0982	-18.533
1.662	36.55	98.3109	4.0978	-18.502
1.670	36.62	98.3013	4.0974	-18.470
1.678	36.69	98.2917	4.0970	-18.439
1.687	36.76	98.2822	4.0966	-18.407
1.695	36.83	98.2726	4.0962	-18.376
1.703	36.90	98.2631	4.0958	-18.344
1.712	36.97	98.2536	4.0954	-18.311
1.720	37.04	98.2442	4.0950	-18.278
1.728	37.11	98.2347	4.0946	-18.245
1.737	37.18	98.2252	4.0942	-18.213
1.745	37.26	98.2158	4.0938	-18.181
1.753	37.33	98.2064	4.0934	-18.148
1.762	37.40	98.1970	4.0930	-18.115
1.770	37.48	98.1877	4.0926	-18.081
1.778	37.55	98.1783	4.0923	-18.048
1.787	37.62	98.1690	4.0919	-18.014
1.795	37.70	98.1597	4.0915	-17.981
1.803	37.77	98.1504	4.0911	-17.947
1.812	37.85	98.1411	4.0907	-17.913
1.820	37.92	98.1319	4.0903	-17.879
1.828	37.99	98.1226	4.0899	-17.845
1.837	38.07	98.1134	4.0895	-17.810
1.845	38.15	98.1042	4.0892	-17.776
1.853	38.22	98.0950	4.0888	-17.741
1.862	38.30	98.0858	4.0884	-17.707
1.870	38.37	98.0766	4.0880	-17.672
1.878	38.45	98.0675	4.0876	-17.637
1.887	38.53	98.0583	4.0873	-17.602
1.895	38.60	98.0492	4.0869	-17.568
1.903	38.68	98.0401	4.0865	-17.532
1.912	38.76	98.0310	4.0861	-17.497
1.920	38.84	98.0220	4.0857	-17.461
1.928	38.92	98.0130	4.0854	-17.426
1.937	38.99	98.0039	4.0850	-17.391
1.945	39.07	97.9949	4.0846	-17.356
1.953	39.15	97.9860	4.0842	-17.320
1.962	39.23	97.9770	4.0839	-17.285
1.970	39.31	97.9681	4.0835	-17.249
1.978	39.39	97.9591	4.0831	-17.212
1.987	39.47	97.9502	4.0827	-17.175
1.995	39.55	97.9413	4.0824	-17.139
2.003	39.63	97.9324	4.0820	-17.103
2.012	39.71	97.9235	4.0816	-17.066
2.020	39.79	97.9146	4.0813	-17.029
2.028	39.87	97.9058	4.0809	-16.991
2.037	39.96	97.8969	4.0805	-16.954
2.045	40.04	97.8881	4.0802	-16.918
2.053	40.12	97.8792	4.0798	-16.881
2.062	40.20	97.8704	4.0794	-16.844
2.070	40.28	97.8616	4.0791	-16.808
2.078	40.37	97.8529	4.0787	-16.772
2.087	40.45	97.8441	4.0783	-16.734
2.095	40.53	97.8354	4.0780	-16.697
2.103	40.61	97.8266	4.0776	-16.660
2.112	40.70	97.8179	4.0772	-16.622
2.120	40.78	97.8092	4.0769	-16.585
2.128	40.86	97.8005	4.0765	-16.547
2.137	40.95	97.7918	4.0761	-16.508
2.145	41.03	97.7831	4.0758	-16.470
2.153	41.12	97.7745	4.0754	-16.431
2.162	41.20	97.7658	4.0751	-16.392
2.170	41.28	97.7572	4.0747	-16.354
2.178	41.37	97.7485	4.0743	-16.315
2.187	41.45	97.7399	4.0740	-16.277
2.195	41.54	97.7313	4.0736	-16.239
2.203	41.62	97.7228	4.0733	-16.201
2.212	41.71	97.7142	4.0729	-16.163
2.220	41.80	97.7057	4.0726	-16.125
2.228	41.88	97.6972	4.0722	-16.086
2.237	41.97	97.6887	4.0718	-16.049
2.245	42.05	97.6802	4.0715	-16.010
2.253	42.14	97.6717	4.0711	-15.972
2.262	42.23	97.6632	4.0708	-15.933
2.270	42.31	97.6548	4.0704	-15.894
2.278	42.40	97.6464	4.0701	-15.855
2.287	42.48	97.6379	4.0697	-15.816
2.295	42.57	97.6295	4.0694	-15.777
2.303	42.66	97.6211	4.0690	-15.737
2.312	42.75	97.6126	4.0687	-15.698
2.320	42.83	97.6042	4.0683	-15.658
2.328	42.92	97.5959	4.0680	-15.617
2.337	43.01	97.5875	4.0676	-15.577
2.345	43.10	97.5791	4.0673	-15.537
2.353	43.19	97.5708	4.0669	-15.498
2.362	43.28	97.5625	4.0666	-15.457
2.370	43.36	97.5541	4.0662	-15.417
2.378	43.45	97.5458	4.0659	-15.376
2.387	43.54	97.5375	4.0655	-15.337
2.395	43.63	97.5293	4.0652	-15.298
2.403	43.72	97.5210	4.0649	-15.257
2.412	43.81	97.5128	4.0645	-15.218
2.420	43.90	97.5046	4.0642	-15.178
2.428	43.99	97.4964	4.0638	-15.137
2.437	44.08	97.4882	4.0635	-15.096
2.445	44.16	97.4800	4.0631	-15.055
2.453	44.25	97.4718	4.0628	-15.015
2.462	44.34	97.4637	4.0625	-14.975
2.470	44.43	97.4556	4.0621	-14.935
2.478	44.52	97.4474	4.0618	-14.894
2.487	44.61	97.4393	4.0615	-14.854
2.495	44.70	97.4312	4.0611	-14.813
2.503	44.79	97.4231	4.0608	-14.772
2.512	44.88	97.4151	4.0604	-14.732
2.520	44.97	97.4070	4.0601	-14.690
2.528	45.06	97.3990	4.0598	-14.649
2.537	45.15	97.3910	4.0594	-14.607
2.545	45.24	97.3829	4.0591	-14.566
2.553	45.34	97.3749	4.0588	-14.523
2.562	45.43	97.3670	4.0584	-14.481
2.570	45.52	97.3590	4.0581	-14.438
2.578	45.61	97.3510	4.0578	-14.396
2.587	45.70	97.3431	4.0574	-14.353
2.595	45.79	97.3352	4.0571	-14.311
2.603	45.88	97.3273	4.0568	-14.270
2.612	45.97	97.3194	4.0565	-14.228
2.620	46.06	97.3116	4.0561	-14.187
2.628	46.16	97.3037	4.0558	-14.145
2.637	46.25	97.2959	4.0555	-14.104
2.645	46.34	97.2881	4.0551	-14.063
2.653	46.43	97.2803	4.0548	-14.022
2.662	46.52	97.2725	4.0545	-13.980
2.670	46.61	97.2646	4.0542	-13.939
2.678	46.70	97.2569	4.0538	-13.897
2.687	46.79	97.2491	4.0535	-13.855
2.695	46.89	97.2413	4.0532	-13.813
2.703	46.98	97.2335	4.0529	-13.772
2.712	47.07	97.2258	4.0526	-13.730
2.720	47.16	97.2181	4.0522	-13.688
2.728	47.25	97.2104	4.0519	-13.645
2.737	47.34	97.2027	4.0516	-13.603
2.745	47.44	97.1950	4.0513	-13.561
2.753	47.53	97.1874	4.0509	-13.518
2.762	47.62	97.1798	4.0506	-13.476
2.770	47.71	97.1722	4.0503	-13.434
2.778	47.80	97.1646	4.0500	-13.392
2.787	47.89	97.1570	4.0497	-13.350
2.795	47.99	97.1495	4.0494	-13.308
2.803	48.08	97.1420	4.0491	-13.267
2.812	48.17	97.1345	4.0487	-13.225
2.820	48.26	97.1270	4.0484	-13.183
2.828	48.35	97.1195	4.0481	-13.141
2.837	48.45	97.1121	4.0478	-13.099
2.845	48.54	97.1046	4.0475	-13.057
2.853	48.63	97.0972	4.0472	-13.014
2.862	48.72	97.0897	4.0469	-12.971
2.870	48.82	97.0823	4.0466	-12.928
2.878	48.91	97.0748	4.0463	-12.885
2.887	49.00	97.0674	4.0459	-12.841
2.895	49.09	97.0600	4.0456	-12.798
2.903	49.19	97.0526	4.0453	-12.754
2.912	49.28	97.0452	4.0450	-12.712
2.920	49.37	97.0379	4.0447	-12.669
2.928	49.46	97.0305	4.0444	-12.626
2.937	49.56	97.0232	4.0441	-12.582
2.945	49.65	97.0160	4.0438	-12.539
2.953	49.74	97.0087	4.0435	-12.496
2.962	49.83	97.0015	4.0432	-12.453
2.970	49.93	96.9943	4.0429	-12.410
2.978	50.02	96.9871	4.0426	-12.367
2.987	50.11	96.9800	4.0423	-12.324
2.995	50.20	96.9729	4.0420	-12.282
3.003	50.29	96.9658	4.0417	-12.238
3.012	50.39	96.9586	4.0414	-12.195
3.020	50.48	96.9515	4.0411	-12.153
3.028	50.57	96.9445	4.0408	-12.111
3.037	50.66	96.9374	4.0405	-12.069
3.045	50.76	96.9303	4.0402	-12.026
3.053	50.85	96.9233	4.0399	-11.983
3.062	50.94	96.9163	4.0397	-11.940
3.070	51.03	96.9093	4.0394	-11.898
3.078	51.12	96.9023	4.0391	-11.855
3.087	51.22	96.8953	4.0388	-11.812
3.095	51.31	96.8884	4.0385	-11.770
3.103	51.40	96.8815	4.0382	-11.727
3.112	51.49	96.8745	4.0379	-11.684
3.120	51.59	96.8676	4.0376	-11.642
3.128	51.68	96.8607	4.0373	-11.599
3.137	51.77	96.8539	4.0370	-11.556
3.145	51.86	96.8471	4.0368	-11.514
3.153	51.95	96.8402	4.0365	-11.470
3.162	52.05	96.8334	4.0362	-11.427
3.170	52.14	96.8267	4.0359	-11.386
3.178	52.23	96.8199	4.0356	-11.343
3.187	52.32	96.8132	4.0354	-11.299
3.195	52.41	96.8065	4.0351	-11.256
3.203	52.50	96.7999	4.0348	-11.212
3.212	52.60	96.7932	4.0345	-11.169
3.220	52.69	96.7865	4.0342	-11.125
3.228	52.78	96.7799	4.0340	-11.083
3.237	52.87	96.7733	4.0337	-11.041
3.245	52.96	96.7668	4.0334	-10.999
3.253	53.06	96.7602	4.0331	-10.956
3.262	53.15	96.7537	4.0329	-10.914
3.270	53.24	96.7472	4.0326	-10.872
3.278	53.33	96.7407	4.0323	-10.830
3.287	53.42	96.7343	4.0321	-10.788
3.295	53.51	96.7279	4.0318	-10.747
3.303	53.60	96.7215	4.0315	-10.705
3.312	53.70	96.7151	4.0313	-10.663
3.320	53.79	96.7087	4.0310	-10.621
3.328	53.88	96.7023	4.0307	-10.579
3.337	53.97	96.6960	4.0305	-10.536
3.345	54.06	96.6897	4.0302	-10.494
3.353	54.15	96.6833	4.0299	-10.451
3.362	54.24	96.6770	4.0297	-10.409
3.370	54.33	96.6707	4.0294	-10.367
3.378	54.43	96.6645	4.0292	-10.325
3.387	54.52	96.6582	4.0289	-10.283
3.395	54.61	96.6520	4.0286	-10.241
3.403	54.70	96.6458	4.0284	-10.199
3.412	54.79	96.6397	4.0281	-10.157
3.420	54.88	96.6335	4.0279	-10.115
3.428	54.97	96.6274	4.0276	-10.073
3.437	55.06	96.6213	4.0274	-10.031
3.445	55.15	96.6153	4.0271	-9.989
3.453	55.24	96.6092	4.0269	-9.947
3.462	55.33	96.6032	4.0266	-9.905
3.470	55.42	96.5972	4.0264	-9.863
3.478	55.51	96.5912	4.0261	-9.820
3.487	55.60	96.5853	4.0259	-9.778
3.495	55.70	96.5794	4.0256	-9.737
3.503	55.79	96.5735	4.0254	-9.696
3.512	55.88	96.5676	4.0251	-9.654
3.520	55.97	96.5618	4.0249	-9.612
3.528	56.06	96.5560	4.0246	-9.571
3.537	56.15	96.5502	4.0244	-9.530
3.545	56.24	96.5444	4.0242	-9.488
3.553	56.33	96.5387	4.0239	-9.447
3.562	56.42	96.5330	4.0237	-9.407
3.570	56.51	96.5272	4.0234	-9.366
3.578	56.60	96.5216	4.0232	-9.325
3.587	56.69	96.5159	4.0230	-9.284
3.595	56.78	96.5102	4.0227	-9.243
3.603	56.87	96.5046	4.0225	-9.203
3.612	56.96	96.4990	4.0223	-9.162
3.620	57.05	96.4934	4.0220	-9.121
3.628	57.14	96.4878	4.0218	-9.081
3.637	57.23	96.4822	4.0216	-9.040
3.645	57.32	96.4766	4.0213	-8.999
3.653	57.40	96.4711	4.0211	-8.958
3.662	57.49	96.4656	4.0209	-8.917
3.670	57.58	96.4602	4.0206	-8.876
3.678	57.67	96.4547	4.0204	-8.835
3.687	57.76	96.4493	4.0202	-8.794
3.695	57.85	96.4439	4.0200	-8.753
3.703	57.94	96.4386	4.0197	-8.713
3.712	58.03	96.4333	4.0195	-8.672
3.720	58.12	96.4280	4.0193	-8.631
3.728	58.21	96.4227	4.0191	-8.590
3.737	58.30	96.4174	4.0189	-8.550
3.745	58.38	96.4122	4.0186	-8.510
3.753	58.47	96.4070	4.0184	-8.470
3.762	58.56	96.4018	4.0182	-8.430
3.770	58.65	96.3967	4.0180	-8.390
3.778	58.74	96.3916	4.0178	-8.350
3.787	58.83	96.3865	4.0176	-8.310
3.795	58.92	96.3814	4.0174	-8.269
3.803	59.01	96.3764	4.0171	-8.230
3.812	59.09	96.3713	4.0169	-8.190
3.820	59.18	96.3663	4.0167	-8.150
3.828	59.27	96.3614	4.0165	-8.110
3.837	59.36	96.3564	4.0163	-8.070
3.845	59.45	96.3515	4.0161	-8.031
3.853	59.54	96.3465	4.0159	-7.990
3.862	59.63	96.3416	4.0157	-7.951
3.870	59.71	96.3367	4.0155	-7.911
3.878	59.80	96.3319	4.0153	-7.872
3.887	59.89	96.3270	4.0151	-7.834
3.895	59.98	96.3222	4.0149	-7.795
3.903	60.07	96.3174	4.0147	-7.756
3.912	60.15	96.3126	4.0145	-7.717
3.920	60.24	96.3078	4.0143	-7.678
3.928	60.33	96.3031	4.0141	-7.640
3.937	60.42	96.2984	4.0139	-7.601
3.945	60.51	96.2937	4.0137	-7.563
3.953	60.59	96.2890	4.0135	-7.524
3.962	60.68	96.2844	4.0133	-7.485
3.970	60.77	96.2798	4.0131	-7.446
3.978	60.86	96.2752	4.0129	-7.407
3.987	60.95	96.2706	4.0127	-7.368
3.995	61.03	96.2660	4.0125	-7.330
4.003	61.12	96.2615	4.0124	-7.291
4.012	61.21	96.2570	4.0122	-7.253
4.020	61.30	96.2525	4.0120	-7.216
4.028	61.38	96.2480	4.0118	-7.177
4.037	61.47	96.2436	4.0116	-7.139
4.045	61.56	96.2391	4.0114	-7.101
4.053	61.64	96.2347	4.0112	-7.062
4.062	61.73	96.2303	4.0111	-7.024
4.070	61.82	96.2259	4.0109	-6.986
4.078	61.91	96.2216	4.0107	-6.948
4.087	61.99	96.2173	4.0105	-6.910
4.095	62.08	96.2130	4.0103	-6.872
4.103	62.17	96.2087	4.0102	-6.834
4.112	62.26	96.2044	4.0100	-6.797
4.120	62.34	96.2002	4.0098	-6.760
4.128	62.43	96.1960	4.0096	-6.723
4.137	62.52	96.1917	4.0095	-6.686
4.145	62.60	96.1876	4.0093	-6.649
4.153	62.69	96.1834	4.0091	-6.612
4.162	62.78	96.1793	4.0089	-6.575
4.170	62.86	96.1751	4.0088	-6.538
4.178	62.95	96.1710	4.0086	-6.502
4.187	63.04	96.1669	4.0084	-6.465
4.195	63.12	96.1628	4.0082	-6.429
4.203	63.21	96.1587	4.0081	-6.392
4.212	63.30	96.1546	4.0079	-6.356
4.220	63.38	96.1506	4.0077	-6.319
4.228	63.47	96.1466	4.0076	-6.283
4.237	63.56	96.1426	4.0074	-6.247
4.245	63.64	96.1387	4.0072	-6.211
4.253	63.73	96.1348	4.0071	-6.174
4.262	63.82	96.1309	4.0069	-6.138
4.270	63.90	96.1270	4.0068	-6.101
4.278	63.99	96.1232	4.0066	-6.064
4.287	64.08	96.1194	4.0064	-6.028
4.295	64.16	96.1156	4.0063	-5.991
4.303	64.25	96.1118	4.0061	-5.955
4.312	64.33	96.1081	4.0060	-5.919
4.320	64.42	96.1044	4.0058	-5.882
4.328	64.51	96.1007	4.0057	-5.846
4.337	64.59	96.0969	4.0055	-5.809
4.345	64.68	96.0933	4.0053	-5.773
4.353	64.77	96.0896	4.0052	-5.737
4.362	64.85	96.0859	4.0050	-5.701
4.370	64.94	96.0822	4.0049	-5.666
4.378	65.02	96.0786	4.0047	-5.631
4.387	65.11	96.0749	4.0046	-5.595
4.395	65.20	96.0713	4.0044	-5.560
4.403	65.28	96.0676	4.0043	-5.526
4.412	65.37	96.0640	4.0041	-5.491
4.420	65.45	96.0605	4.0040	-5.457
4.428	65.54	96.0569	4.0038	-5.422
4.437	65.62	96.0534	4.0037	-5.388
4.445	65.71	96.0499	4.0035	-5.354
4.453	65.80	96.0464	4.0034	-5.319
4.462	65.88	96.0429	4.0032	-5.284
4.470	65.97	96.0395	4.0031	-5.250
4.478	66.05	96.0361	4.0030	-5.215
4.487	66.14	96.0326	4.0028	-5.181
4.495	66.23	96.0292	4.0027	-5.147
4.503	66.31	96.0258	4.0025	-5.112
4.512	66.40	96.0225	4.0024	-5.078
4.520	66.48	96.0191	4.0023	-5.044
4.528	66.57	96.0158	4.0021	-5.010
4.537	66.65	96.0124	4.0020	-4.977
4.545	66.74	96.0091	4.0018	-4.943
4.553	66.82	96.0059	4.0017	-4.910
4.562	66.91	96.0026	4.0016	-4.876
4.570	67.00	95.9993	4.0014	-4.842
4.578	67.08	95.9961	4.0013	-4.808
4.587	67.17	95.9929	4.0012	-4.774
4.595	67.25	95.9897	4.0010	-4.740
4.603	67.34	95.9865	4.0009	-4.706
4.612	67.42	95.9833	4.0008	-4.672
4.620	67.51	95.9801	4.0006	-4.638
4.628	67.59	95.9770	4.0005	-4.604
4.637	67.68	95.9738	4.0004	-4.571
4.645	67.76	95.9707	4.0002	-4.537
4.653	67.85	95.9676	4.0001	-4.503
4.662	67.94	95.9645	4.0000	-4.470
4.670	68.02	95.9614	3.9998	-4.438
4.678	68.11	95.9583	3.9997	-4.405
4.687	68.19	95.9553	3.9996	-4.372
4.695	68.28	95.9522	3.9995	-4.339
4.703	68.36	95.9492	3.9993	-4.307
4.712	68.45	95.9462	3.9992	-4.274
4.720	68.53	95.9433	3.9991	-4.241
4.728	68.62	95.9403	3.9990	-4.209
4.737	68.70	95.9374	3.9988	-4.176
4.745	68.79	95.9344	3.9987	-4.143
4.753	68.87	95.9315	3.9986	-4.110
4.762	68.96	95.9286	3.9985	-4.077
4.770	69.04	95.9258	3.9984	-4.044
4.778	69.13	95.9229	3.9982	-4.012
4.787	69.21	95.9201	3.9981	-3.978
4.795	69.30	95.9172	3.9980	-3.946
4.803	69.38	95.9144	3.9979	-3.914
4.812	69.47	95.9117	3.9978	-3.883
4.820	69.55	95.9089	3.9977	-3.851
4.828	69.64	95.9061	3.9975	-3.820
4.837	69.72	95.9034	3.9974	-3.789
4.845	69.81	95.9007	3.9973	-3.757
4.853	69.89	95.8980	3.9972	-3.726
4.862	69.98	95.8953	3.9971	-3.695
4.870	70.06	95.8926	3.9970	-3.663
4.878	70.15	95.8900	3.9969	-3.631
4.887	70.23	95.8873	3.9968	-3.600
4.895	70.32	95.8847	3.9966	-3.568
4.903	70.40	95.8820	3.9965	-3.537
4.912	70.49	95.8794	3.9964	-3.506
4.920	70.57	95.8768	3.9963	-3.474
4.928	70.66	95.8742	3.9962	-3.443
4.937	70.74	95.8716	3.9961	-3.412
4.945	70.83	95.8690	3.9960	-3.382
4.953	70.91	95.8664	3.9959	-3.352
4.962	71.00	95.8639	3.9958	-3.321
4.970	71.08	95.8613	3.9957	-3.290
4.978	71.17	95.8588	3.9956	-3.260
4.987	71.25	95.8563	3.9955	-3.229
4.995	71.34	95.8538	3.9954	-3.199
5.003	71.42	95.8513	3.9953	-3.168
5.012	71.51	95.8489	3.9952	-3.137
5.020	71.59	95.8464	3.9951	-3.106
5.028	71.68	95.8440	3.9950	-3.075
5.037	71.76	95.8416	3.9949	-3.044
5.045	71.85	95.8392	3.9948	-3.013
5.053	71.93	95.8368	3.9947	-2.982
5.062	72.02	95.8344	3.9946	-2.952
5.070	72.10	95.8320	3.9945	-2.922
5.078	72.19	95.8297	3.9944	-2.892
5.087	72.27	95.8274	3.9943	-2.863
5.095	72.36	95.8250	3.9942	-2.833
5.103	72.44	95.8228	3.9941	-2.803
5.112	72.53	95.8205	3.9940	-2.774
5.120	72.61	95.8182	3.9939	-2.745
5.128	72.70	95.8160	3.9938	-2.716
5.137	72.78	95.8137	3.9937	-2.687
5.145	72.87	95.8115	3.9936	-2.656
5.153	72.95	95.8093	3.9935	-2.626
5.162	73.04	95.8070	3.9934	-2.596
5.170	73.12	95.8049	3.9933	-2.566
5.178	73.21	95.8027	3.9932	-2.536
5.187	73.29	95.8005	3.9931	-2.506
5.195	73.38	95.7984	3.9931	-2.477
5.203	73.46	95.7962	3.9930	-2.447
5.212	73.55	95.7941	3.9929	-2.417
5.220	73.63	95.7920	3.9928	-2.388
5.228	73.72	95.7899	3.9927	-2.359
5.237	73.80	95.7878	3.9926	-2.330
5.245	73.89	95.7858	3.9925	-2.301
5.253	73.97	95.7837	3.9924	-2.271
5.262	74.06	95.7817	3.9924	-2.242
5.270	74.14	95.7797	3.9923	-2.213
5.278	74.23	95.7777	3.9922	-2.184
5.287	74.31	95.7757	3.9921	-2.155
5.295	74.40	95.7737	3.9920	-2.127
5.303	74.48	95.7718	3.9919	-2.098
5.312	74.57	95.7698	3.9919	-2.069
5.320	74.65	95.7679	3.9918	-2.040
5.328	74.74	95.7660	3.9917	-2.011
5.337	74.82	95.7641	3.9916	-1.982
5.345	74.91	95.7622	3.9915	-1.954
5.353	74.99	95.7603	3.9915	-1.925
5.362	75.08	95.7585	3.9914	-1.897
5.370	75.16	95.7566	3.9913	-1.868
5.378	75.25	95.7548	3.9912	-1.839
5.387	75.33	95.7529	3.9912	-1.810
5.395	75.42	95.7511	3.9911	-1.782
5.403	75.50	95.7493	3.9910	-1.754
5.412	75.59	95.7475	3.9909	-1.726
5.420	75.67	95.7457	3.9909	-1.698
5.428	75.76	95.7439	3.9908	-1.670
5.437	75.84	95.7422	3.9907	-1.642
5.445	75.93	95.7404	3.9906	-1.614
5.453	76.01	95.7387	3.9906	-1.586
5.462	76.10	95.7370	3.9905	-1.558
5.470	76.18	95.7352	3.9904	-1.530
5.478	76.27	95.7335	3.9904	-1.503
5.487	76.36	95.7318	3.9903	-1.475
5.495	76.44	95.7301	3.9902	-1.447
5.503	76.52	95.7285	3.9901	-1.419
5.512	76.61	95.7268	3.9901	-1.391
5.520	76.70	95.7251	3.9900	-1.363
5.528	76.78	95.7235	3.9899	-1.335
5.537	76.87	95.7219	3.9899	-1.307
5.545	76.95	95.7203	3.9898	-1.280
5.553	77.04	95.7187	3.9897	-1.253
5.562	77.12	95.7171	3.9897	-1.225
5.570	77.21	95.7155	3.9896	-1.198
5.578	77.29	95.7140	3.9895	-1.171
5.587	77.38	95.7124	3.9895	-1.144
5.595	77.46	95.7109	3.9894	-1.117
5.603	77.55	95.7093	3.9893	-1.090
5.612	77.63	95.7078	3.9893	-1.063
5.620	77.72	95.7063	3.9892	-1.037
5.628	77.80	95.7047	3.9892	-1.010
5.637	77.89	95.7032	3.9891	-0.983
5.645	77.97	95.7017	3.9890	-0.956
5.653	78.06	95.7002	3.9890	-0.930
5.662	78.14	95.6987	3.9889	-0.903
5.670	78.23	95.6972	3.9888	-0.877
5.678	78.32	95.6957	3.9888	-0.850
5.687	78.40	95.6943	3.9887	-0.824
5.695	78.49	95.6928	3.9887	-0.797
5.703	78.57	95.6913	3.9886	-0.770
5.712	78.66	95.6899	3.9885	-0.743
5.720	78.74	95.6884	3.9885	-0.717
5.728	78.83	95.6870	3.9884	-0.690
5.737	78.91	95.6856	3.9884	-0.664
5.745	79.00	95.6842	3.9883	-0.638
5.753	79.08	95.6828	3.9882	-0.611
5.762	79.17	95.6815	3.9882	-0.586
5.770	79.25	95.6801	3.9881	-0.560
5.778	79.34	95.6787	3.9881	-0.534
5.787	79.43	95.6774	3.9880	-0.507
5.795	79.51	95.6761	3.9880	-0.481
5.803	79.60	95.6748	3.9879	-0.456
5.812	79.68	95.6735	3.9878	-0.430
5.820	79.77	95.6722	3.9878	-0.404
5.828	79.85	95.6709	3.9877	-0.377
5.837	79.94	95.6696	3.9877	-0.352
5.845	80.02	95.6684	3.9876	-0.325
5.853	80.11	95.6671	3.9876	-0.300
5.862	80.20	95.6658	3.9875	-0.274
5.870	80.28	95.6646	3.9875	-0.248
5.878	80.37	95.6633	3.9874	-0.223
5.887	80.45	95.6621	3.9874	-0.196
5.895	80.54	95.6608	3.9873	-0.171
5.903	80.62	95.6596	3.9873	-0.146
5.912	80.71	95.6584	3.9872	-0.121
5.920	80.80	95.6572	3.9872	-0.095
5.928	80.88	95.6560	3.9871	-0.069
5.937	80.97	95.6548	3.9871	-0.044
5.945	81.05	95.6536	3.9870	-0.018
5.953	81.14	95.6524	3.9870	0.007
5.962	81.23	95.6512	3.9869	0.032
5.970	81.31	95.6500	3.9869	0.057
5.978	81.40	95.6488	3.9868	0.082
5.987	81.48	95.6477	3.9868	0.107
5.995	81.57	95.6465	3.9867	0.133
6.003	81.65	95.6454	3.9867	0.159
6.012	81.74	95.6443	3.9866	0.184
6.020	81.83	95.6432	3.9866	0.210
6.028	81.91	95.6421	3.9865	0.235
6.037	82.00	95.6410	3.9865	0.261
6.045	82.08	95.6399	3.9864	0.286
6.053	82.17	95.6388	3.9864	0.311
6.062	82.25	95.6377	3.9864	0.336
6.070	82.34	95.6366	3.9863	0.361
6.078	82.43	95.6355	3.9863	0.386
6.087	82.51	95.6345	3.9862	0.411
6.095	82.60	95.6334	3.9862	0.435
6.103	82.68	95.6324	3.9861	0.459
6.112	82.77	95.6313	3.9861	0.483
6.120	82.86	95.6303	3.9860	0.507
6.128	82.94	95.6293	3.9860	0.531
6.137	83.03	95.6283	3.9860	0.555
6.145	83.11	95.6273	3.9859	0.580
6.153	83.20	95.6263	3.9859	0.604
6.162	83.28	95.6253	3.9858	0.628
6.170	83.37	95.6243	3.9858	0.652
6.178	83.46	95.6234	3.9858	0.677
6.187	83.54	95.6224	3.9857	0.702
6.195	83.63	95.6214	3.9857	0.727
6.203	83.71	95.6204	3.9856	0.751
6.212	83.80	95.6195	3.9856	0.775
6.220	83.89	95.6185	3.9856	0.799
6.228	83.97	95.6175	3.9855	0.823
6.237	84.06	95.6165	3.9855	0.847
6.245	84.14	95.6155	3.9854	0.871
6.253	84.23	95.6146	3.9854	0.895
6.262	84.32	95.6136	3.9854	0.919
6.270	84.40	95.6127	3.9853	0.942
6.278	84.49	95.6118	3.9853	0.966
6.287	84.57	95.6109	3.9852	0.989
6.295	84.66	95.6100	3.9852	1.013
6.303	84.75	95.6091	3.9852	1.036
6.312	84.83	95.6082	3.9851	1.059
6.320	84.92	95.6073	3.9851	1.082
6.328	85.00	95.6064	3.9851	1.106
6.337	85.09	95.6056	3.9850	1.130
6.345	85.18	95.6047	3.9850	1.153
6.353	85.26	95.6039	3.9849	1.177
6.362	85.35	95.6030	3.9849	1.201
6.370	85.43	95.6021	3.9849	1.225
6.378	85.52	95.6013	3.9848	1.248
6.387	85.61	95.6004	3.9848	1.272
6.395	85.69	95.5996	3.9848	1.295
6.403	85.78	95.5988	3.9847	1.320
6.412	85.86	95.5980	3.9847	1.343
6.420	85.95	95.5972	3.9847	1.367
6.428	86.04	95.5964	3.9846	1.390
6.437	86.12	95.5956	3.9846	1.413
6.445	86.21	95.5949	3.9846	1.436
6.453	86.30	95.5941	3.9845	1.459
6.462	86.38	95.5934	3.9845	1.482
6.470	86.47	95.5926	3.9845	1.506
6.478	86.55	95.5919	3.9844	1.528
6.487	86.64	95.5912	3.9844	1.551
6.495	86.73	95.5904	3.9844	1.573
6.503	86.81	95.5897	3.9844	1.596
6.512	86.90	95.5890	3.9843	1.618
6.520	86.99	95.5883	3.9843	1.642
6.528	87.07	95.5876	3.9843	1.665
6.537	87.16	95.5869	3.9842	1.688
6.545	87.24	95.5862	3.9842	1.711
6.553	87.33	95.5854	3.9842	1.734
6.562	87.42	95.5847	3.9841	1.757
6.570	87.50	95.5840	3.9841	1.780
6.578	87.59	95.5833	3.9841	1.803
6.587	87.67	95.5826	3.9841	1.826
6.595	87.76	95.5819	3.9840	1.848
6.603	87.85	95.5812	3.9840	1.870
6.612	87.93	95.5805	3.9840	1.892
6.620	88.02	95.5798	3.9839	1.914
6.628	88.11	95.5791	3.9839	1.936
6.637	88.19	95.5784	3.9839	1.958
6.645	88.28	95.5777	3.9839	1.980
6.653	88.36	95.5770	3.9838	2.002
6.662	88.45	95.5763	3.9838	2.024
6.670	88.54	95.5756	3.9838	2.046
6.678	88.62	95.5750	3.9837	2.069
6.687	88.71	95.5743	3.9837	2.092
6.695	88.79	95.5736	3.9837	2.114
6.703	88.88	95.5730	3.9837	2.137
6.712	88.97	95.5723	3.9836	2.159
6.720	89.05	95.5716	3.9836	2.181
6.728	89.14	95.5710	3.9836	2.204
6.737	89.23	95.5703	3.9835	2.226
6.745	89.31	95.5696	3.9835	2.247
6.753	89.40	95.5690	3.9835	2.269
6.762	89.49	95.5684	3.9835	2.290
6.770	89.57	95.5677	3.9834	2.312
6.778	89.66	95.5671	3.9834	2.334
6.787	89.75	95.5665	3.9834	2.355
6.795	89.83	95.5659	3.9834	2.377
6.803	89.92	95.5653	3.9833	2.399
6.812	90.00	95.5647	3.9833	2.421
6.820	90.09	95.5641	3.9833	2.442
6.828	90.18	95.5636	3.9833	2.464
6.837	90.26	95.5630	3.9832	2.486
6.845	90.35	95.5624	3.9832	2.508
6.853	90.43	95.5618	3.9832	2.530
6.862	90.52	95.5613	3.9832	2.552
6.870	90.61	95.5607	3.9831	2.574
6.878	90.69	95.5601	3.9831	2.596
6.887	90.78	95.5596	3.9831	2.618
6.895	90.87	95.5591	3.9831	2.640
6.903	90.95	95.5585	3.9831	2.663
6.912	91.04	95.5580	3.9830	2.685
6.920	91.13	95.5574	3.9830	2.706
6.928	91.21	95.5569	3.9830	2.726
6.937	91.30	95.5563	3.9830	2.747
6.945	91.38	95.5558	3.9829	2.767
6.953	91.47	95.5552	3.9829	2.788
6.962	91.56	95.5546	3.9829	2.808
6.970	91.64	95.5540	3.9829	2.829
6.978	91.73	95.5535	3.9828	2.849
6.987	91.82	95.5529	3.9828	2.870
6.995	91.90	95.5524	3.9828	2.891
7.003	91.99	95.5518	3.9828	2.912
7.012	92.08	95.5513	3.9828	2.934
7.020	92.16	95.5508	3.9827	2.955
7.028	92.25	95.5503	3.9827	2.977
7.037	92.34	95.5498	3.9827	2.999
7.045	92.42	95.5493	3.9827	3.021
7.053	92.51	95.5488	3.9827	3.042
7.062	92.59	95.5483	3.9826	3.063
7.070	92.68	95.5479	3.9826	3.084
7.078	92.77	95.5474	3.9826	3.105
7.087	92.85	95.5470	3.9826	3.126
7.095	92.94	95.5465	3.9826	3.147
7.103	93.03	95.5461	3.9825	3.168
7.112	93.11	95.5456	3.9825	3.189
7.120	93.20	95.5452	3.9825	3.209
7.128	93.28	95.5447	3.9825	3.229
7.137	93.37	95.5442	3.9825	3.250
7.145	93.46	95.5438	3.9824	3.270
7.153	93.54	95.5433	3.9824	3.291
7.162	93.63	95.5429	3.9824	3.311
7.170	93.72	95.5424	3.9824	3.332
7.178	93.80	95.5420	3.9824	3.353
7.187	93.89	95.5415	3.9823	3.373
7.195	93.97	95.5411	3.9823	3.394
7.203	94.06	95.5407	3.9823	3.415
7.212	94.15	95.5402	3.9823	3.436
7.220	94.23	95.5398	3.9823	3.456
7.228	94.32	95.5394	3.9823	3.476
7.237	94.41	95.5390	3.9822	3.497
7.245	94.49	95.5385	3.9822	3.517
7.253	94.58	95.5381	3.9822	3.538
7.262	94.66	95.5377	3.9822	3.557
7.270	94.75	95.5373	3.9822	3.576
7.278	94.84	95.5368	3.9822	3.596
7.287	94.92	95.5364	3.9821	3.616
7.295	95.01	95.5360	3.9821	3.635
7.303	95.10	95.5356	3.9821	3.656
7.312	95.18	95.5352	3.9821	3.676
7.320	95.27	95.5349	3.9821	3.695
7.328	95.35	95.5345	3.9821	3.715
7.337	95.44	95.5341	3.9820	3.734
7.345	95.53	95.5337	3.9820	3.755
7.353	95.61	95.5334	3.9820	3.775
7.362	95.70	95.5330	3.9820	3.796
7.370	95.79	95.5326	3.9820	3.816
7.378	95.87	95.5322	3.9820	3.835
7.387	95.96	95.5318	3.9819	3.855
7.395	96.04	95.5314	3.9819	3.875
7.403	96.13	95.5310	3.9819	3.895
7.412	96.22	95.5306	3.9819	3.914
7.420	96.30	95.5303	3.9819	3.934
7.428	96.39	95.5299	3.9819	3.954
7.437	96.48	95.5295	3.9818	3.973
7.445	96.56	95.5291	3.9818	3.992
7.453	96.65	95.5288	3.9818	4.011
7.462	96.74	95.5284	3.9818	4.031
7.470	96.82	95.5280	3.9818	4.051
7.478	96.91	95.5277	3.9818	4.071
7.487	96.99	95.5273	3.9818	4.090
7.495	97.08	95.5270	3.9817	4.110
7.503	97.17	95.5267	3.9817	4.130
7.512	97.25	95.5263	3.9817	4.149
7.520	97.34	95.5260	3.9817	4.169
7.528	97.42	95.5256	3.9817	4.190
7.537	97.51	95.5252	3.9817	4.209
7.545	97.60	95.5249	3.9817	4.228
7.553	97.68	95.5245	3.9816	4.248
7.562	97.77	95.5241	3.9816	4.267
7.570	97.86	95.5237	3.9816	4.286
7.578	97.94	95.5233	3.9816	4.305
7.587	98.03	95.5230	3.9816	4.324
7.595	98.11	95.5226	3.9816	4.342
7.603	98.20	95.5222	3.9815	4.361
7.612	98.29	95.5219	3.9815	4.380
7.620	98.37	95.5215	3.9815	4.399
7.628	98.46	95.5211	3.9815	4.418
7.637	98.55	95.5208	3.9815	4.437
7.645	98.63	95.5204	3.9815	4.456
7.653	98.72	95.5201	3.9815	4.476
7.662	98.80	95.5198	3.9814	4.494
7.670	98.89	95.5194	3.9814	4.514
7.678	98.98	95.5191	3.9814	4.534
7.687	99.06	95.5187	3.9814	4.553
7.695	99.15	95.5184	3.9814	4.572
7.703	99.23	95.5181	3.9814	4.590
7.712	99.32	95.5177	3.9814	4.609
7.720	99.41	95.5174	3.9813	4.628
7.728	99.49	95.5171	3.9813	4.647
7.737	99.58	95.5168	3.9813	4.666
7.745	99.66	95.5165	3.9813	4.685
7.753	99.75	95.5162	3.9813	4.704
7.762	99.84	95.5159	3.9813	4.722
7.770	99.92	95.5155	3.9813	4.741
7.778	100.01	95.5152	3.9813	4.760
7.787	100.09	95.5149	3.9812	4.778
7.795	100.18	95.5146	3.9812	4.796
7.803	100.27	95.5143	3.9812	4.814
7.812	100.35	95.5141	3.9812	4.831
7.820	100.44	95.5137	3.9812	4.849
7.828	100.52	95.5135	3.9812	4.866
7.837	100.61	95.5132	3.9812	4.884
7.845	100.70	95.5129	3.9812	4.903
7.853	100.78	95.5126	3.9811	4.921
7.862	100.87	95.5124	3.9811	4.939
7.870	100.95	95.5121	3.9811	4.958
7.878	101.04	95.5118	3.9811	4.976
7.887	101.13	95.5115	3.9811	4.995
7.895	101.21	95.5113	3.9811	5.015
7.903	101.30	95.5110	3.9811	5.034
7.912	101.39	95.5107	3.9811	5.053
7.920	101.47	95.5104	3.9811	5.071
7.928	101.56	95.5101	3.9810	5.089
7.937	101.64	95.5099	3.9810	5.107
7.945	101.73	95.5096	3.9810	5.125
7.953	101.82	95.5093	3.9810	5.144
7.962	101.90	95.5090	3.9810	5.162
7.970	101.99	95.5087	3.9810	5.179
7.978	102.07	95.5084	3.9810	5.196
7.987	102.16	95.5081	3.9810	5.214
7.995	102.24	95.5079	3.9809	5.231
8.003	102.33	95.5076	3.9809	5.248
8.012	102.42	95.5073	3.9809	5.266
8.020	102.50	95.5071	3.9809	5.283
8.028	102.59	95.5068	3.9809	5.301
8.037	102.67	95.5066	3.9809	5.319
8.045	102.76	95.5063	3.9809	5.337
8.053	102.85	95.5061	3.9809	5.355
8.062	102.93	95.5058	3.9809	5.374
8.070	103.02	95.5056	3.9809	5.392
8.078	103.10	95.5053	3.9808	5.411
8.087	103.19	95.5051	3.9808	5.429
8.095	103.28	95.5048	3.9808	5.448
8.103	103.36	95.5045	3.9808	5.466
8.112	103.45	95.5042	3.9808	5.484
8.120	103.53	95.5039	3.9808	5.501
8.128	103.62	95.5036	3.9808	5.518
8.137	103.71	95.5033	3.9808	5.536
8.145	103.79	95.5030	3.9807	5.553
8.153	103.88	95.5027	3.9807	5.570
8.162	103.96	95.5024	3.9807	5.588
8.170	104.05	95.5021	3.9807	5.605
8.178	104.13	95.5018	3.9807	5.622
8.187	104.22	95.5014	3.9807	5.638
8.195	104.31	95.5011	3.9807	5.655
8.203	104.39	95.5008	3.9807	5.672
8.212	104.48	95.5005	3.9806	5.689
8.220	104.56	95.5003	3.9806	5.707
8.228	104.65	95.5000	3.9806	5.724
8.237	104.73	95.4997	3.9806	5.741
8.245	104.82	95.4995	3.9806	5.758
8.253	104.91	95.4992	3.9806	5.774
8.262	104.99	95.4989	3.9806	5.792
8.270	105.08	95.4987	3.9806	5.809
8.278	105.16	95.4985	3.9806	5.827
8.287	105.25	95.4982	3.9805	5.845
8.295	105.34	95.4980	3.9805	5.862
8.303	105.42	95.4977	3.9805	5.879
8.312	105.51	95.4975	3.9805	5.896
8.320	105.59	95.4972	3.9805	5.913
8.328	105.68	95.4970	3.9805	5.929
8.337	105.77	95.4967	3.9805	5.946
8.345	105.85	95.4965	3.9805	5.963
8.353	105.94	95.4962	3.9805	5.980
8.362	106.02	95.4960	3.9804	5.997
8.370	106.11	95.4957	3.9804	6.013
8.378	106.20	95.4954	3.9804	6.030
8.387	106.28	95.4952	3.9804	6.047
8.395	106.37	95.4949	3.9804	6.064
8.403	106.45	95.4947	3.9804	6.081
8.412	106.54	95.4945	3.9804	6.098

[step]
Isothermal 30.0 min
Time	Temperature	Weight	Weight	Heat Flow
min	°C	%	mg	mW
8.420	106.62	95.4942	3.9804	6.115
8.445	106.88	95.4935	3.9803	6.166
8.470	107.14	95.4928	3.9803	6.216
8.495	107.39	95.4921	3.9803	6.267
8.520	107.65	95.4914	3.9803	6.321
8.545	107.90	95.4907	3.9802	6.377
8.570	108.15	95.4900	3.9802	6.434
8.595	108.40	95.4894	3.9802	6.493
8.620	108.65	95.4887	3.9801	6.552
8.645	108.89	95.4880	3.9801	6.614
8.670	109.13	95.4872	3.9801	6.677
8.695	109.36	95.4864	3.9801	6.744
8.720	109.59	95.4856	3.9800	6.815
8.745	109.81	95.4847	3.9800	6.887
8.770	110.03	95.4838	3.9799	6.961
8.795	110.24	95.4829	3.9799	7.036
8.820	110.45	95.4819	3.9799	7.115
8.845	110.65	95.4809	3.9798	7.194
8.870	110.85	95.4798	3.9798	7.274
8.895	111.04	95.4788	3.9797	7.355
8.920	111.22	95.4778	3.9797	7.439
8.945	111.40	95.4768	3.9797	7.523
8.970	111.57	95.4759	3.9796	7.607
8.995	111.73	95.4749	3.9796	7.689
9.020	111.89	95.4738	3.9795	7.773
9.045	112.04	95.4727	3.9795	7.859
9.070	112.19	95.4717	3.9794	7.946
9.095	112.33	95.4706	3.9794	8.033
9.120	112.46	95.4697	3.9794	8.117
9.145	112.58	95.4688	3.9793	8.201
9.170	112.70	95.4678	3.9793	8.287
9.195	112.81	95.4669	3.9792	8.374
9.220	112.91	95.4659	3.9792	8.460
9.245	113.00	95.4648	3.9792	8.545
9.270	113.09	95.4637	3.9791	8.629
9.295	113.17	95.4625	3.9791	8.711
9.320	113.24	95.4613	3.9790	8.790
9.345	113.31	95.4602	3.9790	8.866
9.370	113.37	95.4591	3.9789	8.942
9.395	113.43	95.4580	3.9789	9.014
9.420	113.48	95.4569	3.9788	9.083
9.445	113.52	95.4557	3.9788	9.152
9.470	113.56	95.4545	3.9787	9.219
9.495	113.59	95.4533	3.9787	9.284
9.520	113.62	95.4521	3.9786	9.344
9.545	113.64	95.4510	3.9786	9.399
9.570	113.66	95.4499	3.9785	9.453
9.595	113.68	95.4488	3.9785	9.505
9.620	113.69	95.4477	3.9784	9.556
9.645	113.69	95.4465	3.9784	9.604
9.670	113.69	95.4453	3.9783	9.649
9.695	113.69	95.4441	3.9783	9.694
9.720	113.68	95.4429	3.9782	9.735
9.745	113.67	95.4416	3.9782	9.774
9.770	113.66	95.4404	3.9781	9.808
9.795	113.64	95.4391	3.9781	9.840
9.820	113.62	95.4378	3.9780	9.873
9.845	113.59	95.4366	3.9780	9.903
9.870	113.56	95.4354	3.9779	9.932
9.895	113.53	95.4343	3.9779	9.957
9.920	113.50	95.4332	3.9778	9.978
9.945	113.46	95.4320	3.9778	9.997
9.970	113.43	95.4307	3.9777	10.013
9.995	113.39	95.4293	3.9777	10.026
10.020	113.35	95.4280	3.9776	10.036
10.045	113.31	95.4268	3.9776	10.043
10.070	113.27	95.4257	3.9775	10.050
10.095	113.23	95.4247	3.9775	10.055
10.120	113.19	95.4236	3.9774	10.059
10.145	113.14	95.4226	3.9774	10.061
10.170	113.10	95.4217	3.9774	10.062
10.195	113.06	95.4208	3.9773	10.062
10.220	113.01	95.4200	3.9773	10.060
10.245	112.97	95.4192	3.9772	10.056
10.270	112.92	95.4185	3.9772	10.050
10.295	112.88	95.4178	3.9772	10.041
10.320	112.84	95.4171	3.9772	10.031
10.345	112.80	95.4164	3.9771	10.020
10.370	112.76	95.4156	3.9771	10.006
10.395	112.71	95.4148	3.9771	9.991
10.420	112.67	95.4142	3.9770	9.976
10.445	112.63	95.4135	3.9770	9.961
10.470	112.60	95.4130	3.9770	9.946
10.495	112.56	95.4124	3.9770	9.930
10.520	112.52	95.4118	3.9769	9.912
10.545	112.48	95.4113	3.9769	9.892
10.570	112.45	95.4107	3.9769	9.871
10.595	112.41	95.4102	3.9769	9.853
10.620	112.38	95.4098	3.9769	9.834
10.645	112.35	95.4092	3.9768	9.817
10.670	112.32	95.4087	3.9768	9.797
10.695	112.29	95.4081	3.9768	9.776
10.720	112.26	95.4076	3.9768	9.755
10.745	112.23	95.4072	3.9767	9.736
10.770	112.20	95.4067	3.9767	9.717
10.795	112.18	95.4062	3.9767	9.699
10.820	112.16	95.4058	3.9767	9.682
10.845	112.13	95.4055	3.9767	9.664
10.870	112.11	95.4052	3.9767	9.645
10.895	112.09	95.4049	3.9767	9.626
10.920	112.07	95.4046	3.9766	9.606
10.945	112.06	95.4043	3.9766	9.586
10.970	112.04	95.4039	3.9766	9.566
10.995	112.03	95.4037	3.9766	9.548
11.020	112.01	95.4034	3.9766	9.533
11.045	112.00	95.4032	3.9766	9.519
11.070	111.99	95.4030	3.9766	9.504
11.095	111.98	95.4027	3.9766	9.489
11.120	111.97	95.4024	3.9766	9.474
11.145	111.97	95.4021	3.9765	9.459
11.170	111.96	95.4016	3.9765	9.442
11.195	111.96	95.4013	3.9765	9.426
11.220	111.95	95.4011	3.9765	9.411
11.245	111.95	95.4009	3.9765	9.398
11.270	111.95	95.4008	3.9765	9.385
11.295	111.95	95.4006	3.9765	9.371
11.320	111.95	95.4003	3.9765	9.357
11.345	111.95	95.4001	3.9765	9.346
11.370	111.96	95.3998	3.9764	9.334
11.395	111.96	95.3996	3.9764	9.324
11.420	111.97	95.3993	3.9764	9.314
11.445	111.97	95.3990	3.9764	9.304
11.470	111.98	95.3988	3.9764	9.297
11.495	111.99	95.3985	3.9764	9.290
11.520	112.00	95.3983	3.9764	9.283
11.545	112.01	95.3981	3.9764	9.275
11.570	112.02	95.3979	3.9764	9.266
11.595	112.03	95.3977	3.9764	9.258
11.620	112.04	95.3974	3.9763	9.251
11.645	112.06	95.3971	3.9763	9.246
11.670	112.07	95.3968	3.9763	9.242
11.695	112.08	95.3966	3.9763	9.236
11.720	112.10	95.3964	3.9763	9.231
11.745	112.11	95.3962	3.9763	9.227
11.770	112.13	95.3960	3.9763	9.224
11.795	112.14	95.3958	3.9763	9.221
11.820	112.16	95.3955	3.9763	9.219
11.845	112.18	95.3951	3.9762	9.216
11.870	112.19	95.3948	3.9762	9.214
11.895	112.21	95.3945	3.9762	9.211
11.920	112.23	95.3943	3.9762	9.209
11.945	112.25	95.3942	3.9762	9.208
11.970	112.27	95.3940	3.9762	9.207
11.995	112.28	95.3938	3.9762	9.206
12.020	112.30	95.3936	3.9762	9.205
12.045	112.32	95.3935	3.9762	9.205
12.070	112.34	95.3933	3.9762	9.205
12.095	112.36	95.3931	3.9762	9.206
12.120	112.38	95.3929	3.9762	9.207
12.145	112.40	95.3927	3.9761	9.207
12.170	112.42	95.3924	3.9761	9.208
12.195	112.44	95.3921	3.9761	9.209
12.220	112.46	95.3918	3.9761	9.211
[...]
216.445	950.36	1.0278	0.0428	63.930
216.470	950.36	1.0277	0.0428	63.928
216.495	950.36	1.0275	0.0428	63.926
216.520	950.36	1.0274	0.0428	63.923
216.545	950.36	1.0273	0.0428	63.919
216.570	950.36	1.0271	0.0428	63.914
216.595	950.36	1.0269	0.0428	63.910
216.620	950.36	1.0266	0.0428	63.907
216.645	950.36	1.0264	0.0428	63.904
216.670	950.36	1.0261	0.0428	63.901
216.695	950.36	1.0259	0.0428	63.897
216.720	950.36	1.0257	0.0428	63.895
216.745	950.36	1.0256	0.0427	63.894
216.770	950.36	1.0254	0.0427	63.894
216.795	950.36	1.0253	0.0427	63.894
216.820	950.36	1.0251	0.0427	63.894
216.845	950.36	1.0249	0.0427	63.893
216.870	950.36	1.0246	0.0427	63.892
216.895	950.36	1.0243	0.0427	63.891
216.920	950.36	1.0240	0.0427	63.890
216.945	950.36	1.0238	0.0427	63.889
216.970	950.36	1.0236	0.0427	63.889
216.995	950.36	1.0234	0.0427	63.889
217.020	950.36	1.0232	0.0426	63.890
217.045	950.36	1.0230	0.0426	63.891
217.070	950.36	1.0228	0.0426	63.893
217.095	950.35	1.0226	0.0426	63.893
217.120	950.35	1.0223	0.0426	63.892
217.145	950.35	1.0220	0.0426	63.891
217.170	950.36	1.0217	0.0426	63.890
217.195	950.36	1.0214	0.0426	63.890
217.220	950.36	1.0211	0.0426	63.889
217.245	950.36	1.0209	0.0426	63.889
217.270	950.36	1.0206	0.0425	63.888
217.295	950.36	1.0203	0.0425	63.886
217.320	950.36	1.0202	0.0425	63.883
217.345	950.36	1.0200	0.0425	63.879
217.370	950.36	1.0199	0.0425	63.875
217.395	950.36	1.0196	0.0425	63.872
217.420	950.36	1.0194	0.0425	63.869
217.445	950.36	1.0192	0.0425	63.868
217.470	950.36	1.0190	0.0425	63.866
217.495	950.36	1.0188	0.0425	63.866
217.520	950.36	1.0185	0.0425	63.865
217.545	950.36	1.0183	0.0424	63.863
217.570	950.36	1.0179	0.0424	63.860
217.595	950.36	1.0177	0.0424	63.858
217.620	950.36	1.0174	0.0424	63.855
217.645	950.36	1.0172	0.0424	63.854
217.670	950.36	1.0169	0.0424	63.850
217.695	950.35	1.0166	0.0424	63.845
217.720	950.35	1.0163	0.0424	63.840
217.745	950.36	1.0160	0.0424	63.837
217.770	950.36	1.0158	0.0423	63.835
217.795	950.36	1.0156	0.0423	63.832
217.820	950.36	1.0154	0.0423	63.830
217.845	950.36	1.0152	0.0423	63.828
217.870	950.36	1.0150	0.0423	63.827
217.895	950.36	1.0147	0.0423	63.826
217.920	950.36	1.0145	0.0423	63.824
217.945	950.36	1.0143	0.0423	63.822
217.970	950.36	1.0141	0.0423	63.819
217.995	950.36	1.0139	0.0423	63.817
218.020	950.36	1.0138	0.0423	63.816
218.045	950.36	1.0136	0.0423	63.814
218.070	950.35	1.0135	0.0422	63.811
218.095	950.35	1.0133	0.0422	63.808
218.120	950.35	1.0132	0.0422	63.805
218.145	950.35	1.0130	0.0422	63.802
218.170	950.35	1.0128	0.0422	63.799
218.195	950.35	1.0127	0.0422	63.797
218.220	950.36	1.0126	0.0422	63.793
218.245	950.35	1.0123	0.0422	63.789
218.270	950.35	1.0121	0.0422	63.784
218.295	950.35	1.0119	0.0422	63.779
218.320	950.35	1.0118	0.0422	63.776
218.345	950.35	1.0116	0.0422	63.774
218.370	950.35	1.0114	0.0422	63.772
218.395	950.35	1.0113	0.0422	63.770
218.420	950.35	1.0112	0.0421	63.767
218.445	950.35	1.0110	0.0421	63.765
218.470	950.35	1.0109	0.0421	63.762
218.495	950.35	1.0108	0.0421	63.761
218.520	950.35	1.0106	0.0421	63.759
218.545	950.35	1.0105	0.0421	63.758
218.570	950.35	1.0104	0.0421	63.757
218.595	950.35	1.0103	0.0421	63.755
218.620	950.35	1.0101	0.0421	63.753
218.645	950.35	1.0099	0.0421	63.751
218.670	950.35	1.0097	0.0421	63.749
218.695	950.35	1.0095	0.0421	63.746
218.720	950.35	1.0092	0.0421	63.743
218.745	950.35	1.0090	0.0421	63.740
218.770	950.35	1.0088	0.0420	63.738
218.795	950.35	1.0085	0.0420	63.736
218.820	950.35	1.0083	0.0420	63.734
218.845	950.35	1.0081	0.0420	63.732
218.870	950.35	1.0079	0.0420	63.730
218.895	950.35	1.0078	0.0420	63.727
218.920	950.35	1.0076	0.0420	63.724
218.945	950.35	1.0074	0.0420	63.719
218.970	950.35	1.0072	0.0420	63.716
218.995	950.35	1.0069	0.0420	63.712
219.020	950.35	1.0067	0.0420	63.709
219.045	950.35	1.0065	0.0420	63.710
219.070	950.35	1.0063	0.0419	63.711
219.095	950.35	1.0060	0.0419	63.713
219.120	950.35	1.0057	0.0419	63.713
219.145	950.35	1.0054	0.0419	63.711
219.170	950.35	1.0050	0.0419	63.710
219.195	950.35	1.0047	0.0419	63.709
219.220	950.35	1.0045	0.0419	63.707
219.245	950.35	1.0043	0.0419	63.705
219.270	950.35	1.0042	0.0419	63.704
219.295	950.35	1.0040	0.0419	63.703
219.320	950.35	1.0038	0.0418	63.700
219.345	950.35	1.0036	0.0418	63.696
219.370	950.35	1.0034	0.0418	63.691
219.395	950.35	1.0032	0.0418	63.686
219.420	950.35	1.0030	0.0418	63.680
219.445	950.35	1.0028	0.0418	63.674
219.470	950.35	1.0026	0.0418	63.670
219.495	950.35	1.0024	0.0418	63.666
219.520	950.35	1.0022	0.0418	63.664
219.545	950.35	1.0021	0.0418	63.663
219.570	950.35	1.0019	0.0418	63.663
219.595	950.35	1.0017	0.0418	63.662
219.620	950.35	1.0015	0.0417	63.661
219.645	950.35	1.0013	0.0417	63.659
219.670	950.35	1.0011	0.0417	63.658
219.695	950.35	1.0009	0.0417	63.659
219.720	950.35	1.0006	0.0417	63.659
219.745	950.35	1.0004	0.0417	63.659
219.770	950.35	1.0001	0.0417	63.657
219.795	950.35	0.9998	0.0417	63.654
219.820	950.35	0.9996	0.0417	63.651
219.845	950.35	0.9994	0.0417	63.647
219.870	950.35	0.9993	0.0417	63.644
219.895	950.35	0.9991	0.0416	63.642
219.920	950.35	0.9990	0.0416	63.640
219.945	950.35	0.9988	0.0416	63.640
219.970	950.35	0.9985	0.0416	63.640
219.995	950.35	0.9983	0.0416	63.639
220.020	950.35	0.9981	0.0416	63.637
220.045	950.35	0.9979	0.0416	63.635
220.070	950.35	0.9978	0.0416	63.635
220.095	950.35	0.9977	0.0416	63.635
220.120	950.35	0.9976	0.0416	63.636
220.145	950.35	0.9974	0.0416	63.637
220.170	950.35	0.9973	0.0416	63.638
220.195	950.35	0.9972	0.0416	63.637
220.220	950.35	0.9970	0.0416	63.637
220.245	950.35	0.9968	0.0415	63.636
220.270	950.35	0.9965	0.0415	63.636
220.295	950.35	0.9962	0.0415	63.635
220.320	950.35	0.9959	0.0415	63.634
220.345	950.35	0.9957	0.0415	63.633
220.370	950.35	0.9955	0.0415	63.632
220.395	950.35	0.9953	0.0415	63.628
220.420	950.35	0.9952	0.0415	63.626
220.445	950.35	0.9950	0.0415	63.623
220.470	950.35	0.9948	0.0415	63.623
220.495	950.35	0.9945	0.0415	63.624
220.520	950.35	0.9943	0.0414	63.624
220.545	950.35	0.9940	0.0414	63.625
220.570	950.35	0.9939	0.0414	63.625
220.595	950.35	0.9937	0.0414	63.625
220.620	950.35	0.9935	0.0414	63.624
220.645	950.35	0.9933	0.0414	63.623
220.670	950.35	0.9932	0.0414	63.623
220.695	950.35	0.9929	0.0414	63.622
220.720	950.35	0.9927	0.0414	63.621
220.745	950.35	0.9924	0.0414	63.619
220.770	950.35	0.9921	0.0414	63.618
220.795	950.35	0.9918	0.0413	63.617
220.820	950.35	0.9916	0.0413	63.618
220.845	950.35	0.9913	0.0413	63.618
220.870	950.35	0.9910	0.0413	63.616
220.895	950.35	0.9908	0.0413	63.615
220.920	950.35	0.9905	0.0413	63.612
220.945	950.35	0.9903	0.0413	63.610
220.970	950.35	0.9901	0.0413	63.608
220.995	950.35	0.9899	0.0413	63.608
221.020	950.35	0.9897	0.0413	63.608
221.045	950.35	0.9896	0.0412	63.609
221.070	950.35	0.9894	0.0412	63.609
221.095	950.35	0.9891	0.0412	63.611
221.120	950.35	0.9889	0.0412	63.611
221.145	950.35	0.9886	0.0412	63.612
221.170	950.35	0.9884	0.0412	63.611
221.195	950.35	0.9883	0.0412	63.612
221.220	950.35	0.9882	0.0412	63.612
221.245	950.35	0.9880	0.0412	63.613
221.270	950.35	0.9878	0.0412	63.612
221.295	950.35	0.9876	0.0412	63.610
221.320	950.35	0.9874	0.0412	63.607
221.345	950.35	0.9873	0.0412	63.603
221.370	950.35	0.9871	0.0411	63.598
221.395	950.35	0.9868	0.0411	63.595
221.420	950.35	0.9866	0.0411	63.594
221.445	950.35	0.9863	0.0411	63.592
221.470	950.35	0.9861	0.0411	63.590
221.495	950.35	0.9859	0.0411	63.589
221.520	950.35	0.9858	0.0411	63.588
221.545	950.35	0.9856	0.0411	63.588
221.570	950.35	0.9853	0.0411	63.588
221.595	950.34	0.9850	0.0411	63.588
221.620	950.34	0.9847	0.0410	63.589
221.645	950.34	0.9844	0.0410	63.591
221.670	950.34	0.9841	0.0410	63.592
221.695	950.34	0.9839	0.0410	63.592
221.720	950.35	0.9837	0.0410	63.591
221.745	950.35	0.9835	0.0410	63.591
221.770	950.35	0.9833	0.0410	63.592
221.795	950.34	0.9832	0.0410	63.593
221.820	950.34	0.9830	0.0410	63.594
221.845	950.34	0.9827	0.0410	63.594
221.870	950.34	0.9825	0.0410	63.594
221.895	950.34	0.9822	0.0409	63.594
221.920	950.34	0.9821	0.0409	63.594
221.945	950.34	0.9820	0.0409	63.594
221.970	950.34	0.9819	0.0409	63.594
221.995	950.34	0.9818	0.0409	63.593
222.020	950.34	0.9816	0.0409	63.592
222.045	950.34	0.9813	0.0409	63.593
222.070	950.34	0.9810	0.0409	63.594
222.095	950.34	0.9808	0.0409	63.597
222.120	950.34	0.9805	0.0409	63.597
222.145	950.34	0.9803	0.0409	63.597
222.170	950.34	0.9801	0.0409	63.596
222.195	950.34	0.9798	0.0408	63.594
222.220	950.34	0.9796	0.0408	63.592
222.245	950.34	0.9793	0.0408	63.590
222.270	950.34	0.9789	0.0408	63.589
222.295	950.34	0.9786	0.0408	63.588
222.320	950.34	0.9784	0.0408	63.587
222.345	950.34	0.9782	0.0408	63.585
222.370	950.34	0.9781	0.0408	63.583
222.395	950.34	0.9780	0.0408	63.583
222.420	950.34	0.9778	0.0408	63.582
222.445	950.34	0.9776	0.0407	63.583
222.470	950.34	0.9774	0.0407	63.584
222.495	950.34	0.9773	0.0407	63.585
222.520	950.34	0.9771	0.0407	63.584
222.545	950.34	0.9769	0.0407	63.584
222.570	950.34	0.9767	0.0407	63.583
222.595	950.34	0.9766	0.0407	63.585
222.620	950.34	0.9764	0.0407	63.586
222.645	950.34	0.9762	0.0407	63.587
222.670	950.34	0.9760	0.0407	63.587
222.695	950.34	0.9757	0.0407	63.587
222.720	950.34	0.9755	0.0407	63.588
222.745	950.34	0.9753	0.0407	63.589
222.770	950.34	0.9751	0.0406	63.590
222.795	950.34	0.9750	0.0406	63.590
222.820	950.34	0.9747	0.0406	63.588
222.845	950.34	0.9745	0.0406	63.587
222.870	950.34	0.9742	0.0406	63.585
222.895	950.34	0.9739	0.0406	63.584
222.920	950.34	0.9736	0.0406	63.584
222.945	950.34	0.9733	0.0406	63.584
222.970	950.34	0.9730	0.0406	63.582
222.995	950.34	0.9727	0.0405	63.580
223.020	950.34	0.9724	0.0405	63.578
223.045	950.34	0.9721	0.0405	63.577
223.070	950.34	0.9718	0.0405	63.577
223.095	950.34	0.9716	0.0405	63.578
223.120	950.34	0.9714	0.0405	63.579
223.145	950.34	0.9712	0.0405	63.578
223.170	950.34	0.9710	0.0405	63.576
223.195	950.34	0.9709	0.0405	63.575
223.220	950.34	0.9707	0.0405	63.574
223.245	950.34	0.9706	0.0405	63.574
223.270	950.34	0.9704	0.0404	63.573
223.295	950.34	0.9702	0.0404	63.571
223.320	950.34	0.9699	0.0404	63.569
223.345	950.34	0.9698	0.0404	63.565
223.370	950.34	0.9696	0.0404	63.562
223.395	950.34	0.9694	0.0404	63.559
223.420	950.34	0.9691	0.0404	63.557
223.445	950.34	0.9689	0.0404	63.556
223.470	950.34	0.9686	0.0404	63.554
223.495	950.34	0.9683	0.0404	63.552
223.520	950.34	0.9680	0.0403	63.551
223.545	950.34	0.9677	0.0403	63.550
223.570	950.34	0.9676	0.0403	63.548
223.595	950.34	0.9675	0.0403	63.546
223.620	950.34	0.9673	0.0403	63.543
223.645	950.34	0.9672	0.0403	63.542
223.670	950.34	0.9670	0.0403	63.542
223.695	950.34	0.9668	0.0403	63.544
223.720	950.34	0.9666	0.0403	63.545
223.745	950.34	0.9664	0.0403	63.546
223.770	950.34	0.9663	0.0403	63.546
223.795	950.34	0.9662	0.0403	63.547
223.820	950.34	0.9661	0.0403	63.548
223.845	950.34	0.9660	0.0403	63.549
223.870	950.34	0.9659	0.0403	63.548
223.895	950.34	0.9658	0.0403	63.547
223.920	950.34	0.9656	0.0402	63.545
223.945	950.34	0.9655	0.0402	63.543
223.970	950.34	0.9653	0.0402	63.542
223.995	950.34	0.9651	0.0402	63.541
224.020	950.34	0.9649	0.0402	63.541
224.045	950.34	0.9647	0.0402	63.540
224.070	950.34	0.9646	0.0402	63.540
224.095	950.34	0.9646	0.0402	63.540
224.120	950.34	0.9645	0.0402	63.541
224.145	950.34	0.9644	0.0402	63.542
224.170	950.34	0.9642	0.0402	63.542
224.195	950.34	0.9640	0.0402	63.541
224.220	950.34	0.9638	0.0402	63.538
224.245	950.34	0.9636	0.0402	63.537
224.270	950.34	0.9634	0.0402	63.535
224.295	950.34	0.9631	0.0401	63.535
224.320	950.34	0.9628	0.0401	63.534
224.345	950.34	0.9624	0.0401	63.536
224.370	950.34	0.9621	0.0401	63.538
224.395	950.34	0.9619	0.0401	63.539
224.420	950.34	0.9617	0.0401	63.538
224.445	950.34	0.9616	0.0401	63.537
224.470	950.34	0.9613	0.0401	63.535
224.495	950.34	0.9611	0.0401	63.534
224.520	950.34	0.9608	0.0400	63.533
224.545	950.34	0.9605	0.0400	63.532
224.570	950.34	0.9603	0.0400	63.530
224.595	950.34	0.9600	0.0400	63.528
224.620	950.34	0.9598	0.0400	63.527
224.645	950.34	0.9597	0.0400	63.526
224.670	950.34	0.9595	0.0400	63.525
224.695	950.34	0.9594	0.0400	63.524
224.720	950.34	0.9592	0.0400	63.522
224.745	950.34	0.9590	0.0400	63.519
224.770	950.34	0.9588	0.0400	63.516
224.795	950.34	0.9586	0.0400	63.514
224.820	950.34	0.9584	0.0399	63.513
224.845	950.34	0.9582	0.0399	63.513
224.870	950.34	0.9580	0.0399	63.512
224.895	950.34	0.9578	0.0399	63.512
224.920	950.34	0.9576	0.0399	63.513
224.945	950.34	0.9574	0.0399	63.513
224.970	950.34	0.9571	0.0399	63.514
224.995	950.34	0.9568	0.0399	63.516
225.020	950.34	0.9565	0.0399	63.517
225.045	950.34	0.9563	0.0399	63.518
225.070	950.34	0.9561	0.0399	63.518
225.095	950.34	0.9558	0.0398	63.519
225.120	950.34	0.9556	0.0398	63.520
225.145	950.34	0.9555	0.0398	63.519
225.170	950.34	0.9553	0.0398	63.518
225.195	950.34	0.9551	0.0398	63.518
225.220	950.34	0.9549	0.0398	63.517
225.245	950.34	0.9547	0.0398	63.517
225.270	950.34	0.9546	0.0398	63.518
225.295	950.34	0.9544	0.0398	63.519
225.320	950.34	0.9544	0.0398	63.520
225.345	950.34	0.9543	0.0398	63.521
225.370	950.34	0.9542	0.0398	63.520
225.395	950.34	0.9540	0.0398	63.519
225.420	950.34	0.9538	0.0398	63.519
225.445	950.34	0.9536	0.0397	63.518
225.470	950.34	0.9534	0.0397	63.519
225.495	950.34	0.9533	0.0397	63.520
225.520	950.34	0.9532	0.0397	63.522
225.545	950.34	0.9531	0.0397	63.523
225.570	950.34	0.9531	0.0397	63.523
225.595	950.34	0.9529	0.0397	63.522
225.620	950.34	0.9527	0.0397	63.522
225.645	950.34	0.9524	0.0397	63.523
225.670	950.34	0.9521	0.0397	63.524
225.695	950.34	0.9519	0.0397	63.527
225.720	950.34	0.9515	0.0397	63.528
225.745	950.34	0.9513	0.0397	63.528
225.770	950.34	0.9510	0.0396	63.526
225.795	950.34	0.9508	0.0396	63.523
225.820	950.34	0.9507	0.0396	63.521
225.845	950.34	0.9506	0.0396	63.519
225.870	950.34	0.9504	0.0396	63.518
225.895	950.34	0.9503	0.0396	63.517
225.920	950.34	0.9501	0.0396	63.517
225.945	950.34	0.9499	0.0396	63.516
225.970	950.34	0.9497	0.0396	63.515
225.995	950.34	0.9495	0.0396	63.514
226.020	950.34	0.9493	0.0396	63.513
226.045	950.34	0.9491	0.0396	63.513
226.070	950.34	0.9489	0.0396	63.512
226.095	950.34	0.9487	0.0395	63.512
226.120	950.34	0.9485	0.0395	63.512
226.145	950.34	0.9482	0.0395	63.513
226.170	950.34	0.9479	0.0395	63.513
226.195	950.34	0.9476	0.0395	63.514
226.220	950.34	0.9472	0.0395	63.514
226.245	950.34	0.9469	0.0395	63.513
226.270	950.34	0.9467	0.0395	63.513
226.295	950.34	0.9465	0.0395	63.511
226.320	950.34	0.9462	0.0394	63.509
226.345	950.34	0.9460	0.0394	63.506
226.370	950.34	0.9457	0.0394	63.504
226.395	950.34	0.9455	0.0394	63.502
226.420	950.34	0.9453	0.0394	63.500
226.445	950.34	0.9452	0.0394	63.499
226.470	950.34	0.9450	0.0394	63.498
226.495	950.34	0.9448	0.0394	63.498
226.520	950.34	0.9446	0.0394	63.499
226.545	950.34	0.9445	0.0394	63.500
226.570	950.34	0.9445	0.0394	63.501
226.595	950.34	0.9444	0.0394	63.502
226.620	950.34	0.9443	0.0394	63.503
226.645	950.34	0.9441	0.0394	63.503
226.670	950.34	0.9438	0.0393	63.502
226.695	950.34	0.9434	0.0393	63.501
226.720	950.34	0.9431	0.0393	63.500
226.745	950.34	0.9428	0.0393	63.500
226.770	950.34	0.9426	0.0393	63.500
226.795	950.34	0.9424	0.0393	63.500
226.820	950.34	0.9421	0.0393	63.498
226.845	950.34	0.9418	0.0393	63.497
226.870	950.34	0.9415	0.0392	63.496
226.895	950.34	0.9412	0.0392	63.497
226.920	950.34	0.9410	0.0392	63.499
226.945	950.34	0.9407	0.0392	63.500
226.970	950.34	0.9404	0.0392	63.501
226.995	950.34	0.9401	0.0392	63.500
227.020	950.34	0.9398	0.0392	63.499
227.045	950.34	0.9396	0.0392	63.498
227.070	950.34	0.9393	0.0392	63.497
227.095	950.34	0.9391	0.0391	63.497
227.120	950.34	0.9389	0.0391	63.496
227.145	950.34	0.9387	0.0391	63.495
227.170	950.34	0.9386	0.0391	63.493
227.195	950.34	0.9384	0.0391	63.490
227.220	950.34	0.9383	0.0391	63.487
227.245	950.34	0.9382	0.0391	63.484
227.270	950.34	0.9381	0.0391	63.480
227.295	950.34	0.9379	0.0391	63.476
227.320	950.34	0.9377	0.0391	63.474
227.345	950.34	0.9374	0.0391	63.473
227.370	950.34	0.9372	0.0391	63.472
227.395	950.34	0.9370	0.0391	63.473
227.420	950.34	0.9368	0.0390	63.475
227.445	950.34	0.9366	0.0390	63.477
227.470	950.34	0.9364	0.0390	63.478
227.495	950.34	0.9361	0.0390	63.478
227.520	950.34	0.9357	0.0390	63.478
227.545	950.34	0.9355	0.0390	63.477
227.570	950.34	0.9351	0.0390	63.476
227.595	950.34	0.9348	0.0390	63.476
227.620	950.34	0.9345	0.0390	63.475
227.645	950.34	0.9342	0.0389	63.474
227.670	950.34	0.9339	0.0389	63.475
227.695	950.34	0.9338	0.0389	63.475
227.720	950.34	0.9337	0.0389	63.477
227.745	950.34	0.9335	0.0389	63.479
227.770	950.34	0.9334	0.0389	63.480
227.795	950.34	0.9332	0.0389	63.483
227.820	950.33	0.9330	0.0389	63.485
227.845	950.33	0.9328	0.0389	63.486
227.870	950.33	0.9326	0.0389	63.487
227.895	950.33	0.9324	0.0389	63.487
227.920	950.33	0.9322	0.0389	63.488
227.945	950.33	0.9319	0.0388	63.490
227.970	950.34	0.9317	0.0388	63.493
227.995	950.34	0.9315	0.0388	63.495
228.020	950.34	0.9313	0.0388	63.496
228.045	950.34	0.9310	0.0388	63.495
228.070	950.34	0.9306	0.0388	63.493
228.095	950.34	0.9303	0.0388	63.489
228.120	950.34	0.9300	0.0388	63.486
228.145	950.33	0.9298	0.0388	63.483
228.170	950.33	0.9295	0.0387	63.480
228.195	950.33	0.9292	0.0387	63.477
228.220	950.33	0.9288	0.0387	63.475
228.245	950.33	0.9283	0.0387	63.473
228.270	950.33	0.9279	0.0387	63.473
228.295	950.33	0.9276	0.0387	63.472
228.320	950.33	0.9273	0.0387	63.473
228.345	950.33	0.9271	0.0386	63.474
228.370	950.34	0.9269	0.0386	63.476
228.395	950.34	0.9267	0.0386	63.478
228.420	950.34	0.9264	0.0386	63.480
228.445	950.34	0.9261	0.0386	63.482
228.470	950.34	0.9259	0.0386	63.484
228.495	950.34	0.9257	0.0386	63.486
228.520	950.34	0.9255	0.0386	63.488
228.545	950.34	0.9253	0.0386	63.490
228.570	950.34	0.9251	0.0386	63.492
228.595	950.34	0.9249	0.0385	63.491
228.620	950.34	0.9247	0.0385	63.490
228.645	950.34	0.9245	0.0385	63.488
228.670	950.34	0.9244	0.0385	63.488
228.695	950.34	0.9242	0.0385	63.488
228.720	950.34	0.9240	0.0385	63.489
228.745	950.34	0.9238	0.0385	63.490
228.770	950.34	0.9234	0.0385	63.491
228.795	950.33	0.9231	0.0385	63.492
228.820	950.34	0.9229	0.0385	63.493
228.845	950.34	0.9228	0.0385	63.493
228.870	950.34	0.9227	0.0385	63.494
228.895	950.34	0.9225	0.0385	63.495
228.920	950.34	0.9222	0.0384	63.495
228.945	950.34	0.9219	0.0384	63.496
228.970	950.34	0.9217	0.0384	63.497
228.995	950.34	0.9214	0.0384	63.497
229.020	950.34	0.9212	0.0384	63.496
229.045	950.34	0.9210	0.0384	63.495
229.070	950.34	0.9208	0.0384	63.495
229.095	950.34	0.9207	0.0384	63.495
229.120	950.34	0.9205	0.0384	63.496
229.145	950.34	0.9202	0.0384	63.497
229.170	950.34	0.9199	0.0383	63.499
229.195	950.34	0.9196	0.0383	63.502
229.220	950.34	0.9194	0.0383	63.505
229.245	950.34	0.9191	0.0383	63.509
229.270	950.34	0.9189	0.0383	63.513
229.295	950.34	0.9186	0.0383	63.515
229.320	950.34	0.9183	0.0383	63.517
229.345	950.34	0.9180	0.0383	63.517
229.370	950.34	0.9178	0.0383	63.518
229.395	950.34	0.9175	0.0382	63.517
229.420	950.34	0.9173	0.0382	63.516
229.445	950.34	0.9170	0.0382	63.515
229.470	950.34	0.9168	0.0382	63.516
229.495	950.34	0.9164	0.0382	63.518
229.520	950.34	0.9160	0.0382	63.518
229.545	950.34	0.9157	0.0382	63.517
229.570	950.34	0.9154	0.0382	63.516
229.595	950.34	0.9150	0.0381	63.514
229.620	950.34	0.9147	0.0381	63.514
229.645	950.34	0.9143	0.0381	63.515
229.670	950.34	0.9139	0.0381	63.517
229.695	950.34	0.9137	0.0381	63.519
229.720	950.34	0.9135	0.0381	63.521
229.745	950.34	0.9133	0.0381	63.522
229.770	950.34	0.9131	0.0381	63.523
229.795	950.34	0.9128	0.0380	63.524
229.820	950.34	0.9125	0.0380	63.526
229.845	950.34	0.9122	0.0380	63.527
229.870	950.34	0.9120	0.0380	63.529
229.895	950.34	0.9117	0.0380	63.530
229.920	950.34	0.9113	0.0380	63.532
229.945	950.34	0.9110	0.0380	63.534
229.970	950.34	0.9106	0.0380	63.537
229.995	950.34	0.9103	0.0379	63.540
230.020	950.34	0.9101	0.0379	63.542
230.045	950.34	0.9099	0.0379	63.543
230.070	950.34	0.9097	0.0379	63.545
230.095	950.34	0.9095	0.0379	63.546
230.120	950.34	0.9093	0.0379	63.548
230.145	950.34	0.9091	0.0379	63.550
230.170	950.34	0.9087	0.0379	63.551
230.195	950.34	0.9084	0.0379	63.553
230.220	950.34	0.9080	0.0378	63.554
230.245	950.34	0.9077	0.0378	63.555
230.270	950.34	0.9074	0.0378	63.556
230.295		0.9071	0.0378
230.312		0.9069	0.0378