File: examples/soliddistillation/SDb_1.txt
Time	Temperature	Weight	Weight	Heat Flow
min	Â°C	%	mg	mW
0.003		100.0321	3.4057
0.012		100.0664	3.4069
0.020		100.0976	3.4079
0.028		100.1284	3.4090
0.037		100.1565	3.4100
0.045	25.37	100.1794	3.4107	-22.556
0.053	25.46	100.1971	3.4113	-22.486
0.062	25.54	100.2112	3.4118	-22.416
0.070	25.63	100.2226	3.4122	-22.347
0.078	25.71	100.2315	3.4125	-22.277
0.087	25.80	100.2371	3.4127	-22.207
0.095	25.88	100.2394	3.4128	-22.137
0.103	25.97	100.2396	3.4128	-22.067
0.112	26.05	100.2389	3.4128	-21.997
0.120	26.13	100.2377	3.4127	-21.929
0.128	26.22	100.2360	3.4127	-21.861
0.137	26.30	100.2339	3.4126	-21.793
0.145	26.38	100.2313	3.4125	-21.726
0.153	26.46	100.2284	3.4124	-21.659
0.162	26.55	100.2250	3.4123	-21.593
0.170	26.63	100.2213	3.4122	-21.527
0.178	26.71	100.2172	3.4120	-21.462
0.187	26.79	100.2128	3.4119	-21.398
0.195	26.87	100.2080	3.4117	-21.335
0.203	26.95	100.2029	3.4115	-21.272
0.212	27.03	100.1974	3.4113	-21.209
0.220	27.10	100.1916	3.4111	-21.148
0.228	27.18	100.1855	3.4109	-21.086
0.237	27.26	100.1790	3.4107	-21.026
0.245	27.34	100.1723	3.4105	-20.966
0.253	27.42	100.1653	3.4103	-20.907
0.262	27.49	100.1580	3.4100	-20.849
0.270	27.57	100.1504	3.4097	-20.791
0.278	27.64	100.1425	3.4095	-20.733
0.287	27.72	100.1343	3.4092	-20.676
0.295	27.79	100.1259	3.4089	-20.620
0.303	27.86	100.1171	3.4086	-20.565
0.312	27.94	100.1081	3.4083	-20.511
0.320	28.01	100.0989	3.4080	-20.457
0.328	28.08	100.0893	3.4077	-20.404
0.337	28.15	100.0796	3.4073	-20.352
0.345	28.23	100.0695	3.4070	-20.300
0.353	28.30	100.0593	3.4066	-20.250
0.362	28.37	100.0488	3.4063	-20.200
0.370	28.44	100.0380	3.4059	-20.151
0.378	28.51	100.0271	3.4055	-20.103
0.387	28.57	100.0159	3.4052	-20.054
0.395	28.64	100.0045	3.4048	-20.006
0.403	28.71	99.9930	3.4044	-19.958
0.412	28.78	99.9812	3.4040	-19.911
0.420	28.85	99.9693	3.4036	-19.864
0.428	28.91	99.9571	3.4032	-19.818
0.437	28.98	99.9448	3.4027	-19.772
0.445	29.04	99.9324	3.4023	-19.726
0.453	29.11	99.9198	3.4019	-19.682
0.462	29.17	99.9070	3.4015	-19.638
0.470	29.24	99.8941	3.4010	-19.595
0.478	29.30	99.8810	3.4006	-19.552
0.487	29.37	99.8678	3.4001	-19.510
0.495	29.43	99.8545	3.3997	-19.469
0.503	29.49	99.8411	3.3992	-19.428
0.512	29.55	99.8276	3.3988	-19.388
0.520	29.62	99.8139	3.3983	-19.349
0.528	29.68	99.8002	3.3978	-19.310
0.537	29.74	99.7863	3.3974	-19.272
0.545	29.80	99.7724	3.3969	-19.233
0.553	29.86	99.7584	3.3964	-19.195
0.562	29.92	99.7443	3.3959	-19.159
0.570	29.98	99.7301	3.3954	-19.122
0.578	30.04	99.7159	3.3950	-19.085
0.587	30.10	99.7015	3.3945	-19.050
0.595	30.15	99.6872	3.3940	-19.014
0.603	30.21	99.6727	3.3935	-18.978
0.612	30.27	99.6582	3.3930	-18.943
0.620	30.33	99.6436	3.3925	-18.909
0.628	30.38	99.6290	3.3920	-18.876
0.637	30.44	99.6144	3.3915	-18.843
0.645	30.50	99.5997	3.3910	-18.810
0.653	30.55	99.5850	3.3905	-18.778
0.662	30.61	99.5703	3.3900	-18.746
0.670	30.66	99.5555	3.3895	-18.715
0.678	30.72	99.5408	3.3890	-18.683
0.687	30.77	99.5260	3.3885	-18.651
0.695	30.82	99.5112	3.3880	-18.620
0.703	30.88	99.4964	3.3875	-18.588
0.712	30.93	99.4815	3.3870	-18.557
0.720	30.98	99.4667	3.3865	-18.526
0.728	31.03	99.4518	3.3860	-18.495
0.737	31.09	99.4370	3.3855	-18.465
0.745	31.14	99.4221	3.3849	-18.435
0.753	31.19	99.4072	3.3844	-18.405
0.762	31.24	99.3923	3.3839	-18.377
0.770	31.29	99.3775	3.3834	-18.348
0.778	31.35	99.3627	3.3829	-18.320
0.787	31.40	99.3479	3.3824	-18.292
0.795	31.45	99.3332	3.3819	-18.265
0.803	31.50	99.3184	3.3814	-18.238
0.812	31.55	99.3038	3.3809	-18.210
0.820	31.60	99.2891	3.3804	-18.184
0.828	31.65	99.2745	3.3799	-18.157
0.837	31.70	99.2599	3.3794	-18.130
0.845	31.75	99.2454	3.3789	-18.104
0.853	31.80	99.2309	3.3784	-18.078
0.862	31.85	99.2164	3.3779	-18.052
0.870	31.90	99.2020	3.3775	-18.027
0.878	31.95	99.1875	3.3770	-18.002
0.887	32.00	99.1732	3.3765	-17.976
0.895	32.05	99.1589	3.3760	-17.952
0.903	32.10	99.1446	3.3755	-17.927
0.912	32.15	99.1304	3.3750	-17.902
0.920	32.20	99.1163	3.3745	-17.878
0.928	32.24	99.1022	3.3741	-17.854
0.937	32.29	99.0882	3.3736	-17.829
0.945	32.34	99.0742	3.3731	-17.805
0.953	32.39	99.0603	3.3726	-17.782
0.962	32.44	99.0465	3.3722	-17.758
0.970	32.49	99.0327	3.3717	-17.734
0.978	32.54	99.0190	3.3712	-17.710
0.987	32.59	99.0053	3.3708	-17.686
0.995	32.64	98.9917	3.3703	-17.663
1.003	32.69	98.9781	3.3698	-17.639
1.012	32.75	98.9647	3.3694	-17.615
1.020	32.80	98.9513	3.3689	-17.591
1.028	32.85	98.9380	3.3685	-17.568
1.037	32.90	98.9247	3.3680	-17.545
1.045	32.95	98.9116	3.3676	-17.521
1.053	33.00	98.8984	3.3671	-17.499
1.062	33.05	98.8854	3.3667	-17.476
1.070	33.10	98.8724	3.3662	-17.452
1.078	33.15	98.8596	3.3658	-17.429
1.087	33.21	98.8467	3.3654	-17.406
1.095	33.26	98.8340	3.3649	-17.383
1.103	33.31	98.8213	3.3645	-17.360
1.112	33.36	98.8087	3.3641	-17.336
1.120	33.42	98.7961	3.3636	-17.312
1.128	33.47	98.7836	3.3632	-17.288
1.137	33.53	98.7711	3.3628	-17.264
1.145	33.58	98.7587	3.3624	-17.240
1.153	33.63	98.7464	3.3619	-17.216
1.162	33.69	98.7341	3.3615	-17.192
1.170	33.74	98.7219	3.3611	-17.168
1.178	33.80	98.7097	3.3607	-17.145
1.187	33.85	98.6976	3.3603	-17.121
1.195	33.91	98.6855	3.3599	-17.098
1.203	33.96	98.6735	3.3595	-17.074
1.212	34.02	98.6615	3.3591	-17.050
1.220	34.07	98.6496	3.3586	-17.026
1.228	34.13	98.6377	3.3582	-17.002
1.237	34.18	98.6258	3.3578	-16.978
1.245	34.24	98.6141	3.3574	-16.953
1.253	34.30	98.6023	3.3570	-16.929
1.262	34.35	98.5907	3.3566	-16.904
1.270	34.41	98.5790	3.3562	-16.879
1.278	34.47	98.5675	3.3559	-16.853
1.287	34.53	98.5560	3.3555	-16.828
1.295	34.59	98.5445	3.3551	-16.803
1.303	34.65	98.5331	3.3547	-16.778
1.312	34.71	98.5217	3.3543	-16.753
1.320	34.76	98.5104	3.3539	-16.728
1.328	34.82	98.4991	3.3535	-16.702
1.337	34.88	98.4879	3.3531	-16.677
1.345	34.94	98.4767	3.3528	-16.651
1.353	35.00	98.4655	3.3524	-16.625
1.362	35.06	98.4544	3.3520	-16.600
1.370	35.12	98.4434	3.3516	-16.574
1.378	35.19	98.4323	3.3513	-16.547
1.387	35.25	98.4213	3.3509	-16.521
1.395	35.31	98.4104	3.3505	-16.494
1.403	35.37	98.3995	3.3501	-16.468
1.412	35.43	98.3886	3.3498	-16.441
1.420	35.50	98.3778	3.3494	-16.413
1.428	35.56	98.3670	3.3490	-16.386
1.437	35.62	98.3563	3.3487	-16.358
1.445	35.69	98.3456	3.3483	-16.329
1.453	35.75	98.3349	3.3479	-16.302
1.462	35.82	98.3243	3.3476	-16.274
1.470	35.88	98.3138	3.3472	-16.245
1.478	35.95	98.3032	3.3469	-16.216
1.487	36.01	98.2927	3.3465	-16.187
1.495	36.08	98.2823	3.3461	-16.158
1.503	36.14	98.2718	3.3458	-16.129
1.512	36.21	98.2614	3.3454	-16.099
1.520	36.28	98.2510	3.3451	-16.070
1.528	36.34	98.2407	3.3447	-16.041
1.537	36.41	98.2303	3.3444	-16.010
1.545	36.48	98.2201	3.3440	-15.980
1.553	36.54	98.2098	3.3437	-15.950
1.562	36.61	98.1996	3.3433	-15.919
1.570	36.68	98.1895	3.3430	-15.888
1.578	36.75	98.1794	3.3426	-15.857
1.587	36.82	98.1693	3.3423	-15.827
1.595	36.89	98.1593	3.3420	-15.797
1.603	36.96	98.1493	3.3416	-15.766
1.612	37.03	98.1394	3.3413	-15.735
1.620	37.10	98.1295	3.3409	-15.704
1.628	37.17	98.1196	3.3406	-15.672
1.637	37.24	98.1097	3.3403	-15.641
1.645	37.31	98.0999	3.3399	-15.610
1.653	37.38	98.0901	3.3396	-15.579
1.662	37.45	98.0803	3.3393	-15.547
1.670	37.52	98.0705	3.3389	-15.514
1.678	37.59	98.0607	3.3386	-15.482
1.687	37.67	98.0510	3.3383	-15.450
1.695	37.74	98.0413	3.3379	-15.417
1.703	37.81	98.0316	3.3376	-15.384
1.712	37.88	98.0219	3.3373	-15.351
1.720	37.96	98.0123	3.3370	-15.317
1.728	38.03	98.0027	3.3366	-15.284
1.737	38.11	97.9931	3.3363	-15.250
1.745	38.18	97.9835	3.3360	-15.217
1.753	38.26	97.9740	3.3356	-15.182
1.762	38.33	97.9645	3.3353	-15.148
1.770	38.41	97.9551	3.3350	-15.114
1.778	38.48	97.9457	3.3347	-15.079
1.787	38.56	97.9363	3.3344	-15.044
1.795	38.64	97.9269	3.3340	-15.010
1.803	38.71	97.9176	3.3337	-14.975
1.812	38.79	97.9083	3.3334	-14.940
1.820	38.86	97.8990	3.3331	-14.905
1.828	38.94	97.8898	3.3328	-14.870
1.837	39.02	97.8806	3.3325	-14.835
1.845	39.10	97.8714	3.3322	-14.799
1.853	39.17	97.8622	3.3318	-14.764
1.862	39.25	97.8531	3.3315	-14.728
1.870	39.33	97.8440	3.3312	-14.692
1.878	39.41	97.8349	3.3309	-14.656
1.887	39.49	97.8259	3.3306	-14.620
1.895	39.57	97.8169	3.3303	-14.583
1.903	39.65	97.8079	3.3300	-14.546
1.912	39.73	97.7989	3.3297	-14.508
1.920	39.81	97.7899	3.3294	-14.471
1.928	39.89	97.7809	3.3291	-14.434
1.937	39.97	97.7720	3.3288	-14.397
1.945	40.05	97.7631	3.3285	-14.359
1.953	40.13	97.7542	3.3282	-14.322
1.962	40.21	97.7454	3.3279	-14.285
1.970	40.29	97.7366	3.3276	-14.247
1.978	40.37	97.7278	3.3273	-14.209
1.987	40.45	97.7191	3.3270	-14.172
1.995	40.54	97.7103	3.3267	-14.134
2.003	40.62	97.7017	3.3264	-14.097
2.012	40.70	97.6930	3.3261	-14.058
2.020	40.78	97.6843	3.3258	-14.021
2.028	40.87	97.6757	3.3255	-13.983
2.037	40.95	97.6671	3.3252	-13.945
2.045	41.03	97.6585	3.3249	-13.906
2.053	41.12	97.6499	3.3246	-13.866
2.062	41.20	97.6413	3.3243	-13.827
2.070	41.28	97.6328	3.3240	-13.788
2.078	41.37	97.6243	3.3237	-13.748
2.087	41.45	97.6158	3.3235	-13.709
2.095	41.54	97.6073	3.3232	-13.669
2.103	41.62	97.5988	3.3229	-13.629
2.112	41.70	97.5904	3.3226	-13.589
2.120	41.79	97.5820	3.3223	-13.548
2.128	41.87	97.5736	3.3220	-13.508
2.137	41.96	97.5652	3.3217	-13.468
2.145	42.05	97.5569	3.3214	-13.429
2.153	42.13	97.5486	3.3212	-13.389
2.162	42.22	97.5403	3.3209	-13.349
2.170	42.30	97.5320	3.3206	-13.309
2.178	42.39	97.5237	3.3203	-13.269
2.187	42.48	97.5155	3.3200	-13.229
2.195	42.56	97.5072	3.3198	-13.187
2.203	42.65	97.4990	3.3195	-13.147
2.212	42.73	97.4908	3.3192	-13.105
2.220	42.82	97.4826	3.3189	-13.064
2.228	42.91	97.4744	3.3186	-13.022
2.237	43.00	97.4663	3.3184	-12.981
2.245	43.08	97.4581	3.3181	-12.940
2.253	43.17	97.4500	3.3178	-12.898
2.262	43.26	97.4419	3.3175	-12.856
2.270	43.35	97.4338	3.3173	-12.814
2.278	43.43	97.4258	3.3170	-12.773
2.287	43.52	97.4178	3.3167	-12.731
2.295	43.61	97.4099	3.3164	-12.690
2.303	43.70	97.4019	3.3162	-12.648
2.312	43.79	97.3940	3.3159	-12.606
2.320	43.88	97.3861	3.3156	-12.564
2.328	43.96	97.3783	3.3154	-12.522
2.337	44.05	97.3705	3.3151	-12.479
2.345	44.14	97.3626	3.3148	-12.437
2.353	44.23	97.3548	3.3146	-12.396
2.362	44.32	97.3470	3.3143	-12.353
2.370	44.41	97.3393	3.3140	-12.310
2.378	44.50	97.3315	3.3138	-12.268
2.387	44.59	97.3238	3.3135	-12.225
2.395	44.68	97.3161	3.3132	-12.183
2.403	44.77	97.3084	3.3130	-12.140
2.412	44.86	97.3007	3.3127	-12.098
2.420	44.95	97.2930	3.3125	-12.056
2.428	45.04	97.2853	3.3122	-12.013
2.437	45.13	97.2777	3.3119	-11.970
2.445	45.22	97.2700	3.3117	-11.927
2.453	45.31	97.2624	3.3114	-11.884
2.462	45.40	97.2548	3.3112	-11.841
2.470	45.49	97.2472	3.3109	-11.799
2.478	45.58	97.2397	3.3106	-11.757
2.487	45.67	97.2322	3.3104	-11.713
2.495	45.76	97.2246	3.3101	-11.670
2.503	45.85	97.2171	3.3099	-11.627
2.512	45.94	97.2096	3.3096	-11.584
2.520	46.03	97.2021	3.3094	-11.540
2.528	46.13	97.1946	3.3091	-11.497
2.537	46.22	97.1872	3.3089	-11.455
2.545	46.31	97.1798	3.3086	-11.411
2.553	46.40	97.1723	3.3084	-11.368
2.562	46.49	97.1649	3.3081	-11.324
2.570	46.58	97.1576	3.3079	-11.280
2.578	46.67	97.1502	3.3076	-11.237
2.587	46.76	97.1430	3.3074	-11.193
2.595	46.86	97.1357	3.3071	-11.150
2.603	46.95	97.1285	3.3069	-11.107
2.612	47.04	97.1213	3.3066	-11.064
2.620	47.13	97.1141	3.3064	-11.020
2.628	47.22	97.1069	3.3061	-10.977
2.637	47.31	97.0998	3.3059	-10.933
2.645	47.40	97.0927	3.3056	-10.891
2.653	47.50	97.0856	3.3054	-10.847
2.662	47.59	97.0785	3.3052	-10.804
2.670	47.68	97.0715	3.3049	-10.761
2.678	47.77	97.0644	3.3047	-10.718
2.687	47.86	97.0574	3.3044	-10.675
2.695	47.95	97.0504	3.3042	-10.631
2.703	48.05	97.0434	3.3040	-10.588
2.712	48.14	97.0364	3.3037	-10.545
2.720	48.23	97.0294	3.3035	-10.502
2.728	48.32	97.0224	3.3032	-10.458
2.737	48.41	97.0155	3.3030	-10.415
2.745	48.51	97.0085	3.3028	-10.372
2.753	48.60	97.0016	3.3025	-10.329
2.762	48.69	96.9947	3.3023	-10.286
2.770	48.78	96.9879	3.3021	-10.242
2.778	48.88	96.9810	3.3018	-10.199
2.787	48.97	96.9742	3.3016	-10.157
2.795	49.06	96.9675	3.3014	-10.114
2.803	49.15	96.9607	3.3011	-10.070
2.812	49.24	96.9540	3.3009	-10.027
2.820	49.34	96.9473	3.3007	-9.983
2.828	49.43	96.9406	3.3005	-9.940
2.837	49.52	96.9339	3.3002	-9.896
2.845	49.61	96.9272	3.3000	-9.853
2.853	49.71	96.9206	3.2998	-9.809
2.862	49.80	96.9140	3.2996	-9.765
2.870	49.89	96.9074	3.2993	-9.721
2.878	49.98	96.9008	3.2991	-9.678
2.887	50.08	96.8942	3.2989	-9.634
2.895	50.17	96.8877	3.2987	-9.591
2.903	50.26	96.8812	3.2984	-9.548
2.912	50.35	96.8747	3.2982	-9.504
2.920	50.44	96.8683	3.2980	-9.461
2.928	50.54	96.8619	3.2978	-9.417
2.937	50.63	96.8555	3.2976	-9.374
2.945	50.72	96.8491	3.2973	-9.331
2.953	50.81	96.8428	3.2971	-9.288
2.962	50.91	96.8364	3.2969	-9.245
2.970	51.00	96.8302	3.2967	-9.202
2.978	51.09	96.8239	3.2965	-9.160
2.987	51.18	96.8176	3.2963	-9.117
2.995	51.27	96.8114	3.2961	-9.074
3.003	51.37	96.8052	3.2959	-9.032
3.012	51.46	96.7990	3.2956	-8.990
3.020	51.55	96.7929	3.2954	-8.947
3.028	51.64	96.7867	3.2952	-8.904
3.037	51.73	96.7806	3.2950	-8.861
3.045	51.83	96.7744	3.2948	-8.818
3.053	51.92	96.7683	3.2946	-8.776
3.062	52.01	96.7622	3.2944	-8.733
3.070	52.10	96.7561	3.2942	-8.690
3.078	52.19	96.7501	3.2940	-8.648
3.087	52.29	96.7440	3.2938	-8.605
3.095	52.38	96.7380	3.2936	-8.562
3.103	52.47	96.7320	3.2934	-8.520
3.112	52.56	96.7261	3.2932	-8.477
3.120	52.65	96.7201	3.2930	-8.436
3.128	52.74	96.7142	3.2928	-8.394
3.137	52.83	96.7084	3.2926	-8.352
3.145	52.93	96.7026	3.2924	-8.310
3.153	53.02	96.6968	3.2922	-8.268
3.162	53.11	96.6910	3.2920	-8.227
3.170	53.20	96.6852	3.2918	-8.185
3.178	53.29	96.6794	3.2916	-8.144
3.187	53.38	96.6737	3.2914	-8.103
3.195	53.47	96.6680	3.2912	-8.062
3.203	53.57	96.6623	3.2910	-8.021
3.212	53.66	96.6566	3.2908	-7.981
3.220	53.75	96.6509	3.2906	-7.940
3.228	53.84	96.6452	3.2904	-7.898
3.237	53.93	96.6396	3.2902	-7.857
3.245	54.02	96.6340	3.2900	-7.816
3.253	54.11	96.6284	3.2898	-7.775
3.262	54.20	96.6228	3.2896	-7.733
3.270	54.29	96.6173	3.2895	-7.692
3.278	54.39	96.6118	3.2893	-7.651
3.287	54.48	96.6063	3.2891	-7.610
3.295	54.57	96.6008	3.2889	-7.568
3.303	54.66	96.5954	3.2887	-7.526
3.312	54.75	96.5900	3.2885	-7.485
3.320	54.84	96.5846	3.2883	-7.444
3.328	54.93	96.5792	3.2882	-7.403
3.337	55.02	96.5739	3.2880	-7.362
3.345	55.11	96.5686	3.2878	-7.321
3.353	55.20	96.5633	3.2876	-7.280
3.362	55.29	96.5581	3.2874	-7.241
3.370	55.38	96.5529	3.2873	-7.200
3.378	55.47	96.5477	3.2871	-7.161
3.387	55.56	96.5425	3.2869	-7.121
3.395	55.65	96.5374	3.2867	-7.081
3.403	55.74	96.5324	3.2866	-7.042
3.412	55.83	96.5273	3.2864	-7.002
3.420	55.92	96.5223	3.2862	-6.962
3.428	56.01	96.5173	3.2861	-6.922
3.437	56.10	96.5123	3.2859	-6.883
3.445	56.19	96.5072	3.2857	-6.843
3.453	56.28	96.5023	3.2855	-6.803
3.462	56.37	96.4973	3.2854	-6.763
3.470	56.46	96.4924	3.2852	-6.724
3.478	56.55	96.4875	3.2850	-6.685
3.487	56.64	96.4826	3.2849	-6.646
3.495	56.73	96.4777	3.2847	-6.607
3.503	56.82	96.4728	3.2845	-6.568
3.512	56.91	96.4680	3.2844	-6.528
3.520	57.00	96.4632	3.2842	-6.489
3.528	57.09	96.4585	3.2840	-6.450
3.537	57.18	96.4537	3.2839	-6.412
3.545	57.27	96.4490	3.2837	-6.373
3.553	57.36	96.4443	3.2836	-6.335
3.562	57.45	96.4396	3.2834	-6.296
3.570	57.54	96.4350	3.2833	-6.257
3.578	57.63	96.4304	3.2831	-6.218
3.587	57.72	96.4258	3.2829	-6.181
3.595	57.80	96.4212	3.2828	-6.143
3.603	57.89	96.4167	3.2826	-6.105
3.612	57.98	96.4121	3.2825	-6.067
3.620	58.07	96.4076	3.2823	-6.029
3.628	58.16	96.4031	3.2822	-5.991
3.637	58.25	96.3986	3.2820	-5.953
3.645	58.34	96.3941	3.2819	-5.916
3.653	58.43	96.3896	3.2817	-5.878
3.662	58.51	96.3852	3.2816	-5.840
3.670	58.60	96.3808	3.2814	-5.802
3.678	58.69	96.3764	3.2813	-5.765
3.687	58.78	96.3721	3.2811	-5.727
3.695	58.87	96.3678	3.2810	-5.690
3.703	58.96	96.3635	3.2808	-5.652
3.712	59.05	96.3593	3.2807	-5.614
3.720	59.13	96.3550	3.2805	-5.577
3.728	59.22	96.3508	3.2804	-5.539
3.737	59.31	96.3466	3.2802	-5.502
3.745	59.40	96.3425	3.2801	-5.466
3.753	59.49	96.3384	3.2800	-5.429
3.762	59.57	96.3343	3.2798	-5.392
3.770	59.66	96.3302	3.2797	-5.355
3.778	59.75	96.3261	3.2795	-5.319
3.787	59.84	96.3221	3.2794	-5.283
3.795	59.93	96.3182	3.2793	-5.247
3.803	60.01	96.3142	3.2791	-5.211
3.812	60.10	96.3103	3.2790	-5.175
3.820	60.19	96.3064	3.2789	-5.139
3.828	60.28	96.3025	3.2787	-5.103
3.837	60.36	96.2987	3.2786	-5.067
3.845	60.45	96.2948	3.2785	-5.031
3.853	60.54	96.2910	3.2783	-4.995
3.862	60.63	96.2873	3.2782	-4.959
3.870	60.71	96.2835	3.2781	-4.924
3.878	60.80	96.2798	3.2780	-4.889
3.887	60.89	96.2760	3.2778	-4.854
3.895	60.97	96.2723	3.2777	-4.819
3.903	61.06	96.2686	3.2776	-4.784
3.912	61.15	96.2650	3.2775	-4.749
3.920	61.24	96.2613	3.2773	-4.714
3.928	61.32	96.2577	3.2772	-4.679
3.937	61.41	96.2541	3.2771	-4.644
3.945	61.50	96.2505	3.2770	-4.610
3.953	61.58	96.2469	3.2768	-4.575
3.962	61.67	96.2433	3.2767	-4.540
3.970	61.76	96.2398	3.2766	-4.505
3.978	61.85	96.2363	3.2765	-4.470
3.987	61.93	96.2328	3.2764	-4.436
3.995	62.02	96.2293	3.2762	-4.402
4.003	62.11	96.2259	3.2761	-4.367
4.012	62.19	96.2225	3.2760	-4.333
4.020	62.28	96.2191	3.2759	-4.300
4.028	62.37	96.2157	3.2758	-4.266
4.037	62.45	96.2123	3.2757	-4.232
4.045	62.54	96.2090	3.2756	-4.199
4.053	62.62	96.2057	3.2754	-4.166
4.062	62.71	96.2024	3.2753	-4.133
4.070	62.80	96.1992	3.2752	-4.099
4.078	62.88	96.1959	3.2751	-4.066
4.087	62.97	96.1927	3.2750	-4.033
4.095	63.06	96.1896	3.2749	-3.999
4.103	63.14	96.1864	3.2748	-3.966
4.112	63.23	96.1833	3.2747	-3.932
4.120	63.31	96.1802	3.2746	-3.899
4.128	63.40	96.1771	3.2745	-3.865
4.137	63.49	96.1740	3.2744	-3.832
4.145	63.57	96.1710	3.2743	-3.799
4.153	63.66	96.1680	3.2742	-3.766
4.162	63.74	96.1650	3.2741	-3.733
4.170	63.83	96.1620	3.2740	-3.701
4.178	63.92	96.1591	3.2739	-3.668
4.187	64.00	96.1562	3.2738	-3.636
4.195	64.09	96.1532	3.2737	-3.603
4.203	64.17	96.1503	3.2736	-3.572
4.212	64.26	96.1474	3.2735	-3.539
4.220	64.34	96.1445	3.2734	-3.507
4.228	64.43	96.1417	3.2733	-3.474
4.237	64.52	96.1388	3.2732	-3.441
4.245	64.60	96.1359	3.2731	-3.409
4.253	64.69	96.1331	3.2730	-3.377
4.262	64.77	96.1303	3.2729	-3.344
4.270	64.86	96.1275	3.2728	-3.312
4.278	64.94	96.1247	3.2727	-3.280
4.287	65.03	96.1219	3.2726	-3.248
4.295	65.11	96.1192	3.2725	-3.216
4.303	65.20	96.1165	3.2724	-3.185
4.312	65.28	96.1137	3.2723	-3.153
4.320	65.37	96.1111	3.2722	-3.122
4.328	65.46	96.1084	3.2721	-3.091
4.337	65.54	96.1058	3.2720	-3.060
4.345	65.63	96.1032	3.2720	-3.029
4.353	65.71	96.1006	3.2719	-2.997
4.362	65.80	96.0980	3.2718	-2.966
4.370	65.88	96.0954	3.2717	-2.936
4.378	65.97	96.0928	3.2716	-2.906
4.387	66.05	96.0903	3.2715	-2.875
4.395	66.14	96.0878	3.2714	-2.844
4.403	66.22	96.0853	3.2713	-2.813
4.412	66.31	96.0828	3.2713	-2.782
4.420	66.39	96.0803	3.2712	-2.751
4.428	66.48	96.0778	3.2711	-2.720
4.437	66.56	96.0754	3.2710	-2.690
4.445	66.65	96.0729	3.2709	-2.659
4.453	66.73	96.0705	3.2708	-2.628
4.462	66.82	96.0681	3.2708	-2.596
4.470	66.90	96.0657	3.2707	-2.566
4.478	66.99	96.0633	3.2706	-2.536
4.487	67.07	96.0609	3.2705	-2.507
4.495	67.16	96.0586	3.2704	-2.477
4.503	67.24	96.0563	3.2704	-2.448
4.512	67.33	96.0540	3.2703	-2.418
4.520	67.41	96.0517	3.2702	-2.389
4.528	67.50	96.0495	3.2701	-2.360
4.537	67.58	96.0472	3.2700	-2.330
4.545	67.67	96.0450	3.2700	-2.300
4.553	67.75	96.0428	3.2699	-2.271
4.562	67.84	96.0407	3.2698	-2.242
4.570	67.92	96.0385	3.2698	-2.212
4.578	68.01	96.0363	3.2697	-2.183
4.587	68.09	96.0342	3.2696	-2.154
4.595	68.18	96.0321	3.2695	-2.124
4.603	68.26	96.0301	3.2695	-2.095
4.612	68.34	96.0280	3.2694	-2.066
4.620	68.43	96.0259	3.2693	-2.037
4.628	68.51	96.0239	3.2693	-2.009
4.637	68.60	96.0219	3.2692	-1.980
4.645	68.68	96.0199	3.2691	-1.951
4.653	68.77	96.0179	3.2690	-1.922
4.662	68.85	96.0159	3.2690	-1.893
4.670	68.94	96.0139	3.2689	-1.864
4.678	69.02	96.0120	3.2688	-1.835
4.687	69.11	96.0100	3.2688	-1.806
4.695	69.19	96.0080	3.2687	-1.777
4.703	69.27	96.0060	3.2686	-1.748
4.712	69.36	96.0041	3.2686	-1.720
4.720	69.44	96.0021	3.2685	-1.691
4.728	69.53	96.0002	3.2684	-1.662
4.737	69.61	95.9983	3.2684	-1.634
4.745	69.70	95.9964	3.2683	-1.606
4.753	69.78	95.9946	3.2683	-1.578
4.762	69.87	95.9927	3.2682	-1.549
4.770	69.95	95.9909	3.2681	-1.521
4.778	70.04	95.9891	3.2681	-1.494
4.787	70.12	95.9873	3.2680	-1.466
4.795	70.20	95.9856	3.2679	-1.438
4.803	70.29	95.9838	3.2679	-1.411
4.812	70.37	95.9820	3.2678	-1.383
4.820	70.46	95.9803	3.2678	-1.355
4.828	70.54	95.9786	3.2677	-1.328
4.837	70.62	95.9768	3.2677	-1.300
4.845	70.71	95.9751	3.2676	-1.273
4.853	70.79	95.9734	3.2675	-1.245
4.862	70.88	95.9717	3.2675	-1.217
4.870	70.96	95.9700	3.2674	-1.190
4.878	71.05	95.9683	3.2674	-1.162
4.887	71.13	95.9667	3.2673	-1.135
4.895	71.21	95.9651	3.2673	-1.109
4.903	71.30	95.9635	3.2672	-1.082
4.912	71.38	95.9619	3.2671	-1.055
4.920	71.47	95.9603	3.2671	-1.028
4.928	71.55	95.9587	3.2670	-1.001
4.937	71.64	95.9572	3.2670	-0.975
4.945	71.72	95.9557	3.2669	-0.948
4.953	71.81	95.9542	3.2669	-0.921
4.962	71.89	95.9527	3.2668	-0.895
4.970	71.97	95.9512	3.2668	-0.868
4.978	72.06	95.9497	3.2667	-0.841
4.987	72.14	95.9482	3.2667	-0.815
4.995	72.23	95.9467	3.2666	-0.789
5.003	72.31	95.9453	3.2666	-0.763
5.012	72.40	95.9438	3.2665	-0.737
5.020	72.48	95.9423	3.2665	-0.710
5.028	72.56	95.9409	3.2664	-0.684
5.037	72.65	95.9394	3.2664	-0.658
5.045	72.73	95.9380	3.2663	-0.631
5.053	72.82	95.9366	3.2663	-0.604
5.062	72.90	95.9352	3.2662	-0.578
5.070	72.99	95.9338	3.2662	-0.551
5.078	73.07	95.9324	3.2661	-0.525
5.087	73.16	95.9310	3.2661	-0.498
5.095	73.24	95.9296	3.2660	-0.471
5.103	73.32	95.9282	3.2660	-0.445
5.112	73.41	95.9269	3.2660	-0.418
5.120	73.49	95.9255	3.2659	-0.391
5.128	73.58	95.9241	3.2659	-0.366
5.137	73.66	95.9228	3.2658	-0.340
5.145	73.74	95.9214	3.2658	-0.314
5.153	73.83	95.9201	3.2657	-0.289
5.162	73.91	95.9188	3.2657	-0.263
5.170	74.00	95.9175	3.2656	-0.238
5.178	74.08	95.9162	3.2656	-0.213
5.187	74.17	95.9149	3.2655	-0.188
5.195	74.25	95.9136	3.2655	-0.163
5.203	74.34	95.9123	3.2655	-0.138
5.212	74.42	95.9110	3.2654	-0.112
5.220	74.51	95.9098	3.2654	-0.087
5.228	74.59	95.9086	3.2653	-0.062
5.237	74.67	95.9074	3.2653	-0.036
5.245	74.76	95.9062	3.2652	-0.011
5.253	74.84	95.9050	3.2652	0.015
5.262	74.93	95.9038	3.2652	0.041
5.270	75.01	95.9027	3.2651	0.066
5.278	75.10	95.9016	3.2651	0.091
5.287	75.18	95.9004	3.2651	0.116
5.295	75.27	95.8993	3.2650	0.141
5.303	75.35	95.8982	3.2650	0.166
5.312	75.44	95.8971	3.2649	0.192
5.320	75.52	95.8960	3.2649	0.217
5.328	75.61	95.8949	3.2649	0.242
5.337	75.69	95.8937	3.2648	0.266
5.345	75.77	95.8927	3.2648	0.291
5.353	75.86	95.8916	3.2647	0.315
5.362	75.94	95.8905	3.2647	0.339
5.370	76.03	95.8894	3.2647	0.363
5.378	76.11	95.8884	3.2646	0.387
5.387	76.20	95.8873	3.2646	0.411
5.395	76.28	95.8863	3.2646	0.435
5.403	76.37	95.8853	3.2645	0.458
5.412	76.45	95.8843	3.2645	0.483
5.420	76.53	95.8832	3.2645	0.507
5.428	76.62	95.8822	3.2644	0.531
5.437	76.70	95.8812	3.2644	0.555
5.445	76.79	95.8802	3.2644	0.579
5.453	76.87	95.8792	3.2643	0.602
5.462	76.96	95.8782	3.2643	0.626
5.470	77.04	95.8772	3.2643	0.651
5.478	77.13	95.8762	3.2642	0.675
5.487	77.21	95.8752	3.2642	0.699
5.495	77.30	95.8742	3.2642	0.723
5.503	77.38	95.8732	3.2641	0.747
5.512	77.47	95.8723	3.2641	0.770
5.520	77.55	95.8713	3.2641	0.794
5.528	77.64	95.8703	3.2640	0.818
5.537	77.72	95.8694	3.2640	0.841
5.545	77.81	95.8684	3.2640	0.865
5.553	77.89	95.8675	3.2639	0.889
5.562	77.97	95.8666	3.2639	0.912
5.570	78.06	95.8656	3.2639	0.935
5.578	78.14	95.8647	3.2638	0.959
5.587	78.23	95.8638	3.2638	0.983
5.595	78.31	95.8629	3.2638	1.007
5.603	78.40	95.8620	3.2637	1.030
5.612	78.48	95.8611	3.2637	1.054
5.620	78.57	95.8602	3.2637	1.078
5.628	78.65	95.8593	3.2637	1.101
5.637	78.74	95.8585	3.2636	1.124
5.645	78.82	95.8576	3.2636	1.147
5.653	78.91	95.8567	3.2636	1.171
5.662	78.99	95.8559	3.2635	1.194
5.670	79.08	95.8551	3.2635	1.217
5.678	79.16	95.8542	3.2635	1.240
5.687	79.25	95.8534	3.2635	1.263
5.695	79.33	95.8526	3.2634	1.286
5.703	79.42	95.8518	3.2634	1.308
5.712	79.50	95.8510	3.2634	1.330
5.720	79.59	95.8503	3.2633	1.353
5.728	79.67	95.8495	3.2633	1.376
5.737	79.76	95.8487	3.2633	1.399
5.745	79.84	95.8479	3.2633	1.422
5.753	79.93	95.8471	3.2632	1.444
5.762	80.01	95.8464	3.2632	1.467
5.770	80.10	95.8456	3.2632	1.490
5.778	80.18	95.8448	3.2632	1.512
5.787	80.27	95.8441	3.2631	1.535
5.795	80.35	95.8433	3.2631	1.558
5.803	80.44	95.8426	3.2631	1.580
5.812	80.52	95.8418	3.2631	1.602
5.820	80.61	95.8411	3.2630	1.624
5.828	80.69	95.8403	3.2630	1.647
5.837	80.78	95.8396	3.2630	1.669
5.845	80.86	95.8389	3.2630	1.691
5.853	80.95	95.8382	3.2629	1.713
5.862	81.03	95.8375	3.2629	1.736
5.870	81.12	95.8368	3.2629	1.758
5.878	81.20	95.8360	3.2629	1.780
5.887	81.29	95.8353	3.2628	1.802
5.895	81.37	95.8346	3.2628	1.824
5.903	81.46	95.8339	3.2628	1.846
5.912	81.54	95.8333	3.2628	1.868
5.920	81.63	95.8326	3.2627	1.890
5.928	81.71	95.8319	3.2627	1.913
5.937	81.80	95.8312	3.2627	1.935
5.945	81.88	95.8306	3.2627	1.957
5.953	81.97	95.8300	3.2627	1.979
5.962	82.05	95.8293	3.2626	2.001
5.970	82.14	95.8287	3.2626	2.023
5.978	82.22	95.8281	3.2626	2.045
5.987	82.31	95.8275	3.2626	2.067
5.995	82.39	95.8269	3.2625	2.089
6.003	82.48	95.8262	3.2625	2.110
6.012	82.57	95.8257	3.2625	2.132
6.020	82.65	95.8251	3.2625	2.153
6.028	82.74	95.8245	3.2625	2.175
6.037	82.82	95.8239	3.2624	2.196
6.045	82.91	95.8234	3.2624	2.218
6.053	82.99	95.8228	3.2624	2.239
6.062	83.08	95.8223	3.2624	2.261
6.070	83.16	95.8218	3.2624	2.283
6.078	83.25	95.8212	3.2624	2.304
6.087	83.33	95.8208	3.2623	2.326
6.095	83.42	95.8202	3.2623	2.347
6.103	83.50	95.8197	3.2623	2.369
6.112	83.59	95.8192	3.2623	2.390
6.120	83.67	95.8187	3.2623	2.411
6.128	83.76	95.8182	3.2622	2.433
6.137	83.85	95.8176	3.2622	2.454
6.145	83.93	95.8171	3.2622	2.475
6.153	84.02	95.8166	3.2622	2.496
6.162	84.10	95.8161	3.2622	2.518
6.170	84.19	95.8156	3.2622	2.538
6.178	84.27	95.8151	3.2621	2.559
6.187	84.36	95.8146	3.2621	2.580
6.195	84.44	95.8142	3.2621	2.601
6.203	84.53	95.8137	3.2621	2.622
6.212	84.62	95.8133	3.2621	2.643
6.220	84.70	95.8128	3.2621	2.663
6.228	84.79	95.8123	3.2621	2.684
6.237	84.87	95.8119	3.2620	2.704
6.245	84.96	95.8114	3.2620	2.724
6.253	85.04	95.8110	3.2620	2.745
6.262	85.13	95.8105	3.2620	2.766
6.270	85.21	95.8100	3.2620	2.786
6.278	85.30	95.8095	3.2620	2.806
6.287	85.39	95.8090	3.2619	2.827
6.295	85.47	95.8085	3.2619	2.847
6.303	85.56	95.8080	3.2619	2.868
6.312	85.64	95.8076	3.2619	2.889
6.320	85.73	95.8071	3.2619	2.909
6.328	85.81	95.8066	3.2619	2.930
6.337	85.90	95.8062	3.2618	2.951
6.345	85.99	95.8057	3.2618	2.971
6.353	86.07	95.8053	3.2618	2.991
6.362	86.16	95.8049	3.2618	3.011
6.370	86.24	95.8045	3.2618	3.031
6.378	86.33	95.8041	3.2618	3.051
6.387	86.41	95.8037	3.2618	3.071
6.395	86.50	95.8033	3.2617	3.092
6.403	86.59	95.8029	3.2617	3.112
6.412	86.67	95.8024	3.2617	3.133
6.420	86.76	95.8020	3.2617	3.152
6.428	86.84	95.8016	3.2617	3.172
6.437	86.93	95.8011	3.2617	3.193
6.445	87.01	95.8007	3.2617	3.214
6.453	87.10	95.8002	3.2616	3.235
6.462	87.19	95.7998	3.2616	3.255
6.470	87.27	95.7993	3.2616	3.276
6.478	87.36	95.7989	3.2616	3.296
6.487	87.44	95.7985	3.2616	3.317
6.495	87.53	95.7981	3.2616	3.337
6.503	87.62	95.7977	3.2616	3.357
6.512	87.70	95.7973	3.2615	3.377
6.520	87.79	95.7969	3.2615	3.396
6.528	87.87	95.7965	3.2615	3.416
6.537	87.96	95.7961	3.2615	3.436
6.545	88.05	95.7957	3.2615	3.456
6.553	88.13	95.7953	3.2615	3.476
6.562	88.22	95.7949	3.2615	3.496
6.570	88.30	95.7945	3.2614	3.515
6.578	88.39	95.7941	3.2614	3.535
6.587	88.48	95.7938	3.2614	3.555
6.595	88.56	95.7934	3.2614	3.575
6.603	88.65	95.7931	3.2614	3.595
6.612	88.73	95.7928	3.2614	3.615
6.620	88.82	95.7924	3.2614	3.634
6.628	88.90	95.7921	3.2614	3.654
6.637	88.99	95.7918	3.2614	3.674
6.645	89.07	95.7915	3.2613	3.693
6.653	89.16	95.7912	3.2613	3.712
6.662	89.25	95.7909	3.2613	3.731
6.670	89.33	95.7905	3.2613	3.750
6.678	89.42	95.7902	3.2613	3.768
6.687	89.50	95.7899	3.2613	3.787
6.695	89.59	95.7896	3.2613	3.806
6.703	89.68	95.7892	3.2613	3.825
6.712	89.76	95.7889	3.2613	3.843
6.720	89.85	95.7886	3.2612	3.862
6.728	89.93	95.7882	3.2612	3.881
6.737	90.02	95.7879	3.2612	3.901
6.745	90.10	95.7876	3.2612	3.921
6.753	90.19	95.7872	3.2612	3.940
6.762	90.28	95.7869	3.2612	3.960
6.770	90.36	95.7866	3.2612	3.979
6.778	90.45	95.7863	3.2612	3.998
6.787	90.53	95.7860	3.2612	4.017
6.795	90.62	95.7857	3.2611	4.036
6.803	90.71	95.7855	3.2611	4.055
6.812	90.79	95.7852	3.2611	4.073
6.820	90.88	95.7849	3.2611	4.092
6.828	90.96	95.7846	3.2611	4.110
6.837	91.05	95.7844	3.2611	4.129
6.845	91.14	95.7841	3.2611	4.147
6.853	91.22	95.7838	3.2611	4.165
6.862	91.31	95.7836	3.2611	4.184
6.870	91.39	95.7833	3.2611	4.202
6.878	91.48	95.7831	3.2611	4.221
6.887	91.57	95.7828	3.2610	4.239
6.895	91.65	95.7825	3.2610	4.258
6.903	91.74	95.7822	3.2610	4.277
6.912	91.82	95.7820	3.2610	4.295
6.920	91.91	95.7817	3.2610	4.314
6.928	92.00	95.7815	3.2610	4.333
6.937	92.08	95.7812	3.2610	4.351
6.945	92.17	95.7810	3.2610	4.370
6.953	92.25	95.7807	3.2610	4.388
6.962	92.34	95.7805	3.2610	4.406
6.970	92.43	95.7803	3.2610	4.424
6.978	92.51	95.7801	3.2610	4.443
6.987	92.60	95.7798	3.2609	4.461
6.995	92.68	95.7796	3.2609	4.480
7.003	92.77	95.7794	3.2609	4.498
7.012	92.85	95.7791	3.2609	4.516
7.020	92.94	95.7789	3.2609	4.535
7.028	93.03	95.7786	3.2609	4.553
7.037	93.11	95.7784	3.2609	4.572
7.045	93.20	95.7781	3.2609	4.591
7.053	93.29	95.7779	3.2609	4.610
7.062	93.37	95.7776	3.2609	4.628
7.070	93.46	95.7774	3.2609	4.646
7.078	93.54	95.7771	3.2609	4.664
7.087	93.63	95.7769	3.2608	4.682
7.095	93.71	95.7767	3.2608	4.700
7.103	93.80	95.7765	3.2608	4.718
7.112	93.89	95.7762	3.2608	4.736
7.120	93.97	95.7760	3.2608	4.754
7.128	94.06	95.7758	3.2608	4.771
7.137	94.14	95.7756	3.2608	4.789
7.145	94.23	95.7753	3.2608	4.806
7.153	94.32	95.7751	3.2608	4.824
7.162	94.40	95.7749	3.2608	4.841
7.170	94.49	95.7746	3.2608	4.860
7.178	94.57	95.7744	3.2608	4.878
7.187	94.66	95.7741	3.2607	4.896
7.195	94.75	95.7739	3.2607	4.913
7.203	94.83	95.7736	3.2607	4.931
7.212	94.92	95.7734	3.2607	4.949
7.220	95.00	95.7731	3.2607	4.966
7.228	95.09	95.7729	3.2607	4.984
7.237	95.18	95.7727	3.2607	5.002
7.245	95.26	95.7724	3.2607	5.019
7.253	95.35	95.7722	3.2607	5.036
7.262	95.43	95.7720	3.2607	5.053
7.270	95.52	95.7718	3.2607	5.070
7.278	95.61	95.7716	3.2607	5.088
7.287	95.69	95.7714	3.2607	5.106
7.295	95.78	95.7712	3.2606	5.123
7.303	95.86	95.7710	3.2606	5.140
7.312	95.95	95.7707	3.2606	5.158
7.320	96.03	95.7705	3.2606	5.175
7.328	96.12	95.7703	3.2606	5.193
7.337	96.21	95.7701	3.2606	5.210
7.345	96.29	95.7699	3.2606	5.227
7.353	96.38	95.7696	3.2606	5.244
7.362	96.46	95.7694	3.2606	5.261
7.370	96.55	95.7691	3.2606	5.278
7.378	96.64	95.7689	3.2606	5.295
7.387	96.72	95.7687	3.2606	5.313
7.395	96.81	95.7685	3.2606	5.330
7.403	96.89	95.7683	3.2606	5.347
7.412	96.98	95.7681	3.2605	5.364
7.420	97.07	95.7679	3.2605	5.381
7.428	97.15	95.7677	3.2605	5.399
7.437	97.24	95.7676	3.2605	5.416
7.445	97.32	95.7674	3.2605	5.433
7.453	97.41	95.7672	3.2605	5.450
7.462	97.50	95.7671	3.2605	5.467
7.470	97.58	95.7669	3.2605	5.483
7.478	97.67	95.7667	3.2605	5.499
7.487	97.75	95.7665	3.2605	5.517
7.495	97.84	95.7664	3.2605	5.533
7.503	97.92	95.7662	3.2605	5.550
7.512	98.01	95.7661	3.2605	5.566
7.520	98.10	95.7659	3.2605	5.583
7.528	98.18	95.7658	3.2605	5.600
7.537	98.27	95.7656	3.2605	5.617
7.545	98.35	95.7655	3.2605	5.635
7.553	98.44	95.7653	3.2604	5.652
7.562	98.52	95.7651	3.2604	5.668
7.570	98.61	95.7650	3.2604	5.685
7.578	98.70	95.7648	3.2604	5.700
7.587	98.78	95.7646	3.2604	5.716
7.595	98.87	95.7645	3.2604	5.733
7.603	98.95	95.7643	3.2604	5.749
7.612	99.04	95.7641	3.2604	5.766
7.620	99.13	95.7640	3.2604	5.782
7.628	99.21	95.7638	3.2604	5.799
7.637	99.30	95.7637	3.2604	5.815
7.645	99.38	95.7635	3.2604	5.833
7.653	99.47	95.7634	3.2604	5.849
7.662	99.55	95.7633	3.2604	5.867
7.670	99.64	95.7631	3.2604	5.883
7.678	99.73	95.7630	3.2604	5.900
7.687	99.81	95.7628	3.2604	5.916
7.695	99.90	95.7626	3.2604	5.933
7.703	99.98	95.7624	3.2604	5.949
7.712	100.07	95.7622	3.2603	5.965
7.720	100.15	95.7621	3.2603	5.981
7.728	100.24	95.7619	3.2603	5.997
7.737	100.33	95.7617	3.2603	6.013
7.745	100.41	95.7615	3.2603	6.029
7.753	100.50	95.7613	3.2603	6.045
7.762	100.58	95.7611	3.2603	6.061
7.770	100.67	95.7609	3.2603	6.076
7.778	100.75	95.7607	3.2603	6.091
7.787	100.84	95.7605	3.2603	6.106
7.795	100.93	95.7604	3.2603	6.122
7.803	101.01	95.7602	3.2603	6.138
7.812	101.10	95.7600	3.2603	6.154
7.820	101.18	95.7599	3.2603	6.169
7.828	101.27	95.7597	3.2603	6.184
7.837	101.35	95.7596	3.2603	6.199
7.845	101.44	95.7595	3.2603	6.215
7.853	101.53	95.7593	3.2602	6.231
7.862	101.61	95.7592	3.2602	6.247
7.870	101.70	95.7591	3.2602	6.263
7.878	101.78	95.7590	3.2602	6.279
7.887	101.87	95.7589	3.2602	6.294
7.895	101.95	95.7588	3.2602	6.309
7.903	102.04	95.7586	3.2602	6.324
7.912	102.13	95.7585	3.2602	6.339
7.920	102.21	95.7584	3.2602	6.355
7.928	102.30	95.7583	3.2602	6.370
7.937	102.38	95.7581	3.2602	6.386
7.945	102.47	95.7580	3.2602	6.401
7.953	102.55	95.7578	3.2602	6.417
7.962	102.64	95.7577	3.2602	6.433
7.970	102.72	95.7575	3.2602	6.448
7.978	102.81	95.7573	3.2602	6.464
7.987	102.90	95.7572	3.2602	6.480
7.995	102.98	95.7570	3.2602	6.495
8.003	103.07	95.7568	3.2602	6.510
8.012	103.15	95.7567	3.2602	6.526
8.020	103.24	95.7566	3.2602	6.540
8.028	103.32	95.7564	3.2601	6.555
8.037	103.41	95.7563	3.2601	6.569
8.045	103.49	95.7562	3.2601	6.584
8.053	103.58	95.7560	3.2601	6.599
8.062	103.66	95.7559	3.2601	6.613
8.070	103.75	95.7558	3.2601	6.628
8.078	103.84	95.7557	3.2601	6.642
8.087	103.92	95.7555	3.2601	6.657
8.095	104.01	95.7554	3.2601	6.671
8.103	104.09	95.7553	3.2601	6.686
8.112	104.18	95.7552	3.2601	6.702
8.120	104.26	95.7551	3.2601	6.717
8.128	104.35	95.7549	3.2601	6.732
8.137	104.43	95.7548	3.2601	6.748
8.145	104.52	95.7546	3.2601	6.763
8.153	104.61	95.7545	3.2601	6.778
8.162	104.69	95.7543	3.2601	6.793
8.170	104.78	95.7541	3.2601	6.809
8.178	104.86	95.7539	3.2601	6.823
8.187	104.95	95.7537	3.2601	6.839
8.195	105.03	95.7536	3.2601	6.854
8.203	105.12	95.7534	3.2600	6.869
8.212	105.20	95.7532	3.2600	6.883
8.220	105.29	95.7530	3.2600	6.897
8.228	105.37	95.7528	3.2600	6.912
8.237	105.46	95.7526	3.2600	6.927
8.245	105.55	95.7525	3.2600	6.941
8.253	105.63	95.7523	3.2600	6.956
8.262	105.72	95.7521	3.2600	6.970
8.270	105.80	95.7519	3.2600	6.984
8.278	105.89	95.7518	3.2600	6.998
8.287	105.97	95.7516	3.2600	7.011
8.295	106.06	95.7515	3.2600	7.026
8.303	106.14	95.7514	3.2600	7.040
8.312	106.23	95.7513	3.2600	7.055
8.320	106.31	95.7511	3.2600	7.069
8.328	106.40	95.7510	3.2600	7.083
8.337	106.48	95.7509	3.2600	7.097
8.345	106.57	95.7509	3.2600	7.112
8.353	106.66	95.7507	3.2600	7.127

[step]
Isothermal 30.0 min
Time	Temperature	Weight	Weight	Heat Flow
min	Â°C	%	mg	mW
8.362	106.74	95.7506	3.2600	7.142
8.387	107.00	95.7503	3.2599	7.185
8.412	107.25	95.7499	3.2599	7.229
8.437	107.51	95.7497	3.2599	7.271
8.462	107.76	95.7494	3.2599	7.316
8.487	108.01	95.7490	3.2599	7.361
8.512	108.26	95.7484	3.2599	7.407
8.537	108.51	95.7479	3.2599	7.459
8.562	108.76	95.7474	3.2598	7.511
8.587	109.00	95.7468	3.2598	7.564
8.612	109.23	95.7462	3.2598	7.619
8.637	109.46	95.7455	3.2598	7.676
8.662	109.69	95.7447	3.2597	7.734
8.687	109.92	95.7438	3.2597	7.791
8.712	110.13	95.7428	3.2597	7.850
8.737	110.34	95.7418	3.2596	7.910
8.762	110.55	95.7407	3.2596	7.969
8.787	110.75	95.7396	3.2596	8.030
8.812	110.94	95.7386	3.2595	8.088
8.837	111.13	95.7375	3.2595	8.146
8.862	111.31	95.7364	3.2595	8.203
8.887	111.49	95.7352	3.2594	8.259
8.912	111.65	95.7340	3.2594	8.316
8.937	111.82	95.7327	3.2593	8.370
8.962	111.97	95.7314	3.2593	8.421
8.987	112.12	95.7301	3.2593	8.468
9.012	112.26	95.7288	3.2592	8.517
9.037	112.39	95.7274	3.2592	8.565
9.062	112.52	95.7261	3.2591	8.612
9.087	112.64	95.7248	3.2591	8.658
9.112	112.75	95.7235	3.2590	8.700
9.137	112.85	95.7223	3.2590	8.741
9.162	112.95	95.7209	3.2589	8.779
9.187	113.04	95.7194	3.2589	8.813
9.212	113.12	95.7179	3.2588	8.846
9.237	113.19	95.7162	3.2588	8.876
9.262	113.26	95.7146	3.2587	8.903
9.287	113.32	95.7129	3.2587	8.925
9.312	113.38	95.7111	3.2586	8.941
9.337	113.42	95.7094	3.2585	8.956
9.362	113.47	95.7076	3.2585	8.968
9.387	113.50	95.7058	3.2584	8.979
9.412	113.54	95.7041	3.2584	8.988
9.437	113.56	95.7023	3.2583	8.993
9.462	113.58	95.7004	3.2582	8.996
9.487	113.60	95.6986	3.2582	8.996
9.512	113.61	95.6968	3.2581	8.995
9.537	113.62	95.6951	3.2581	8.991
9.562	113.62	95.6934	3.2580	8.985
9.587	113.62	95.6916	3.2579	8.976
9.612	113.61	95.6898	3.2579	8.963
9.637	113.60	95.6880	3.2578	8.947
9.662	113.59	95.6862	3.2578	8.925
9.687	113.57	95.6844	3.2577	8.901
9.712	113.55	95.6826	3.2576	8.876
9.737	113.52	95.6809	3.2576	8.851
9.762	113.49	95.6792	3.2575	8.823
9.787	113.46	95.6776	3.2575	8.794
9.812	113.43	95.6761	3.2574	8.766
9.837	113.39	95.6746	3.2574	8.734
9.862	113.35	95.6731	3.2573	8.700
9.887	113.31	95.6716	3.2573	8.663
9.912	113.26	95.6699	3.2572	8.627
9.937	113.22	95.6684	3.2572	8.591
9.962	113.17	95.6670	3.2571	8.553
9.987	113.12	95.6656	3.2571	8.514
10.012	113.07	95.6643	3.2570	8.473
10.037	113.02	95.6630	3.2570	8.429
10.062	112.97	95.6619	3.2569	8.383
10.087	112.92	95.6609	3.2569	8.337
10.112	112.88	95.6598	3.2569	8.292
10.137	112.83	95.6587	3.2568	8.247
10.162	112.78	95.6576	3.2568	8.203
10.187	112.73	95.6566	3.2567	8.158
10.212	112.68	95.6556	3.2567	8.114
10.237	112.63	95.6547	3.2567	8.069
10.262	112.58	95.6539	3.2567	8.025
10.287	112.54	95.6531	3.2566	7.981
10.312	112.49	95.6524	3.2566	7.939
10.337	112.44	95.6517	3.2566	7.896
10.362	112.40	95.6510	3.2566	7.855
10.387	112.35	95.6501	3.2565	7.812
10.412	112.31	95.6494	3.2565	7.771
10.437	112.27	95.6488	3.2565	7.731
10.462	112.23	95.6483	3.2565	7.690
10.487	112.19	95.6479	3.2565	7.651
10.512	112.15	95.6474	3.2564	7.612
10.537	112.11	95.6469	3.2564	7.575
10.562	112.07	95.6464	3.2564	7.539
10.587	112.04	95.6459	3.2564	7.505
10.612	112.01	95.6454	3.2564	7.473
10.637	111.97	95.6449	3.2564	7.443
10.662	111.94	95.6445	3.2563	7.410
10.687	111.91	95.6441	3.2563	7.379
10.712	111.89	95.6437	3.2563	7.348
10.737	111.86	95.6434	3.2563	7.320
10.762	111.83	95.6431	3.2563	7.291
10.787	111.81	95.6428	3.2563	7.262
10.812	111.78	95.6424	3.2563	7.234
10.837	111.76	95.6420	3.2563	7.208
10.862	111.74	95.6417	3.2562	7.183
10.887	111.73	95.6414	3.2562	7.160
10.912	111.71	95.6411	3.2562	7.136
10.937	111.69	95.6407	3.2562	7.115
10.962	111.68	95.6404	3.2562	7.095
10.987	111.67	95.6400	3.2562	7.079
11.012	111.66	95.6397	3.2562	7.061
11.037	111.65	95.6395	3.2562	7.045
11.062	111.64	95.6392	3.2562	7.028
11.087	111.63	95.6389	3.2561	7.013
11.112	111.62	95.6387	3.2561	7.000
11.137	111.62	95.6384	3.2561	6.988
11.162	111.62	95.6382	3.2561	6.977
11.187	111.62	95.6380	3.2561	6.966
11.212	111.62	95.6378	3.2561	6.956
11.237	111.62	95.6375	3.2561	6.947
11.262	111.62	95.6373	3.2561	6.938
11.287	111.62	95.6370	3.2561	6.931
11.312	111.62	95.6367	3.2561	6.922
11.337	111.63	95.6364	3.2561	6.914
11.362	111.63	95.6362	3.2561	6.907
11.387	111.64	95.6360	3.2560	6.902
11.412	111.65	95.6357	3.2560	6.898
11.437	111.66	95.6355	3.2560	6.893
11.462	111.67	95.6352	3.2560	6.889
11.487	111.68	95.6351	3.2560	6.886
11.512	111.69	95.6350	3.2560	6.883
11.537	111.70	95.6348	3.2560	6.881
11.562	111.72	95.6345	3.2560	6.879
11.587	111.73	95.6343	3.2560	6.878
11.612	111.74	95.6342	3.2560	6.877
11.637	111.76	95.6340	3.2560	6.877
11.662	111.78	95.6338	3.2560	6.877
11.687	111.79	95.6336	3.2560	6.877
11.712	111.81	95.6334	3.2560	6.877
11.737	111.82	95.6332	3.2560	6.878
11.762	111.84	95.6330	3.2559	6.879
11.787	111.86	95.6328	3.2559	6.881
11.812	111.88	95.6326	3.2559	6.883
11.837	111.90	95.6324	3.2559	6.885
11.862	111.92	95.6322	3.2559	6.887
11.887	111.93	95.6319	3.2559	6.890
11.912	111.95	95.6317	3.2559	6.895
11.937	111.97	95.6315	3.2559	6.900
11.962	111.99	95.6313	3.2559	6.907
11.987	112.01	95.6310	3.2559	6.912
12.012	112.03	95.6307	3.2559	6.917
12.037	112.05	95.6304	3.2559	6.923
12.062	112.07	95.6302	3.2558	6.929
12.087	112.09	95.6299	3.2558	6.937
12.112	112.11	95.6297	3.2558	6.944
12.137	112.13	95.6295	3.2558	6.951
12.162	112.16	95.6293	3.2558	6.956
12.187	112.18	95.6290	3.2558	6.962
12.212	112.20	95.6287	3.2558	6.969
12.237	112.22	95.6284	3.2558	6.976
12.262	112.23	95.6282	3.2558	6.983
12.287	112.25	95.6280	3.2558	6.992
12.312	112.27	95.6278	3.2558	7.001
12.337	112.29	95.6275	3.2558	7.010
12.362	112.31	95.6273	3.2558	7.018
12.387	112.33	95.6270	3.2557	7.026
12.412	112.35	95.6269	3.2557	7.032
12.437	112.37	95.6266	3.2557	7.037
12.462	112.38	95.6264	3.2557	7.041
[...]
217.112	949.37	-0.6258	-0.0213	21.428
217.137	949.37	-0.6261	-0.0213	21.428
217.162	949.37	-0.6264	-0.0213	21.428
217.187	949.37	-0.6267	-0.0213	21.428
217.212	949.37	-0.6271	-0.0213	21.428
217.237	949.37	-0.6274	-0.0214	21.428
217.262	949.37	-0.6276	-0.0214	21.427
217.287	949.37	-0.6278	-0.0214	21.426
217.312	949.37	-0.6278	-0.0214	21.423
217.337	949.37	-0.6279	-0.0214	21.421
217.362	949.37	-0.6280	-0.0214	21.419
217.387	949.37	-0.6282	-0.0214	21.418
217.412	949.37	-0.6285	-0.0214	21.417
217.437	949.37	-0.6288	-0.0214	21.416
217.462	949.37	-0.6290	-0.0214	21.414
217.487	949.37	-0.6292	-0.0214	21.414
217.512	949.37	-0.6294	-0.0214	21.416
217.537	949.37	-0.6296	-0.0214	21.418
217.562	949.37	-0.6299	-0.0214	21.420
217.587	949.37	-0.6302	-0.0215	21.420
217.612	949.37	-0.6304	-0.0215	21.419
217.637	949.37	-0.6306	-0.0215	21.418
217.662	949.37	-0.6308	-0.0215	21.417
217.687	949.37	-0.6309	-0.0215	21.416
217.712	949.37	-0.6311	-0.0215	21.415
217.737	949.37	-0.6313	-0.0215	21.413
217.762	949.37	-0.6315	-0.0215	21.413
217.787	949.37	-0.6316	-0.0215	21.413
217.812	949.37	-0.6317	-0.0215	21.412
217.837	949.37	-0.6318	-0.0215	21.411
217.862	949.37	-0.6319	-0.0215	21.411
217.887	949.37	-0.6320	-0.0215	21.410
217.912	949.37	-0.6321	-0.0215	21.410
217.937	949.37	-0.6323	-0.0215	21.411
217.962	949.37	-0.6325	-0.0215	21.412
217.987	949.37	-0.6327	-0.0215	21.413
218.012	949.37	-0.6329	-0.0215	21.414
218.037	949.37	-0.6331	-0.0216	21.414
218.062	949.37	-0.6333	-0.0216	21.416
218.087	949.37	-0.6335	-0.0216	21.417
218.112	949.37	-0.6338	-0.0216	21.419
218.137	949.37	-0.6341	-0.0216	21.420
218.162	949.37	-0.6344	-0.0216	21.422
218.187	949.37	-0.6346	-0.0216	21.422
218.212	949.37	-0.6348	-0.0216	21.422
218.237	949.37	-0.6351	-0.0216	21.422
218.262	949.37	-0.6354	-0.0216	21.422
218.287	949.37	-0.6357	-0.0216	21.422
218.312	949.37	-0.6360	-0.0217	21.422
218.337	949.37	-0.6362	-0.0217	21.421
218.362	949.37	-0.6364	-0.0217	21.419
218.387	949.37	-0.6364	-0.0217	21.417
218.412	949.37	-0.6365	-0.0217	21.415
218.437	949.37	-0.6366	-0.0217	21.414
218.462	949.37	-0.6368	-0.0217	21.414
218.487	949.37	-0.6369	-0.0217	21.413
218.512	949.37	-0.6371	-0.0217	21.412
218.537	949.37	-0.6374	-0.0217	21.412
218.562	949.37	-0.6376	-0.0217	21.413
218.587	949.37	-0.6379	-0.0217	21.416
218.612	949.37	-0.6382	-0.0217	21.420
218.637	949.37	-0.6385	-0.0217	21.424
218.662	949.37	-0.6388	-0.0217	21.427
218.687	949.37	-0.6391	-0.0218	21.428
218.712	949.37	-0.6393	-0.0218	21.428
218.737	949.37	-0.6396	-0.0218	21.427
218.762	949.37	-0.6399	-0.0218	21.427
218.787	949.37	-0.6402	-0.0218	21.427
218.812	949.37	-0.6405	-0.0218	21.427
218.837	949.37	-0.6406	-0.0218	21.427
218.862	949.37	-0.6408	-0.0218	21.427
218.887	949.37	-0.6409	-0.0218	21.428
218.912	949.37	-0.6410	-0.0218	21.428
218.937	949.37	-0.6410	-0.0218	21.428
218.962	949.37	-0.6411	-0.0218	21.426
218.987	949.37	-0.6414	-0.0218	21.424
219.012	949.37	-0.6417	-0.0218	21.423
219.037	949.37	-0.6420	-0.0219	21.421
219.062	949.37	-0.6422	-0.0219	21.420
219.087	949.37	-0.6424	-0.0219	21.420
219.112	949.37	-0.6426	-0.0219	21.421
219.137	949.37	-0.6428	-0.0219	21.423
219.162	949.37	-0.6430	-0.0219	21.424
219.187	949.37	-0.6432	-0.0219	21.426
219.212	949.37	-0.6434	-0.0219	21.426
219.237	949.37	-0.6436	-0.0219	21.426
219.262	949.37	-0.6438	-0.0219	21.426
219.287	949.37	-0.6441	-0.0219	21.427
219.312	949.37	-0.6443	-0.0219	21.428
219.337	949.37	-0.6447	-0.0219	21.428
219.362	949.37	-0.6449	-0.0220	21.428
219.387	949.37	-0.6451	-0.0220	21.427
219.412	949.37	-0.6454	-0.0220	21.427
219.437	949.37	-0.6455	-0.0220	21.427
219.462	949.37	-0.6456	-0.0220	21.426
219.487	949.37	-0.6456	-0.0220	21.426
219.512	949.37	-0.6458	-0.0220	21.428
219.537	949.37	-0.6460	-0.0220	21.430
219.562	949.37	-0.6462	-0.0220	21.433
219.587	949.37	-0.6465	-0.0220	21.435
219.612	949.37	-0.6467	-0.0220	21.437
219.637	949.37	-0.6468	-0.0220	21.439
219.662	949.37	-0.6469	-0.0220	21.440
219.687	949.37	-0.6471	-0.0220	21.443
219.712	949.37	-0.6472	-0.0220	21.445
219.737	949.37	-0.6474	-0.0220	21.447
219.762	949.37	-0.6475	-0.0220	21.447
219.787	949.37	-0.6476	-0.0220	21.446
219.812	949.37	-0.6476	-0.0220	21.445
219.837	949.37	-0.6478	-0.0221	21.445
219.862	949.37	-0.6480	-0.0221	21.446
219.887	949.37	-0.6482	-0.0221	21.447
219.912	949.37	-0.6485	-0.0221	21.448
219.937	949.37	-0.6488	-0.0221	21.447
219.962	949.37	-0.6491	-0.0221	21.447
219.987	949.37	-0.6493	-0.0221	21.447
220.012	949.37	-0.6496	-0.0221	21.449
220.037	949.37	-0.6498	-0.0221	21.450
220.062	949.37	-0.6501	-0.0221	21.451
220.087	949.37	-0.6504	-0.0221	21.452
220.112	949.37	-0.6507	-0.0222	21.452
220.137	949.37	-0.6510	-0.0222	21.453
220.162	949.37	-0.6512	-0.0222	21.453
220.187	949.37	-0.6514	-0.0222	21.454
220.212	949.37	-0.6516	-0.0222	21.455
220.237	949.37	-0.6518	-0.0222	21.456
220.262	949.37	-0.6520	-0.0222	21.457
220.287	949.37	-0.6522	-0.0222	21.457
220.312	949.37	-0.6524	-0.0222	21.458
220.337	949.37	-0.6526	-0.0222	21.461
220.362	949.37	-0.6529	-0.0222	21.465
220.387	949.37	-0.6531	-0.0222	21.467
220.412	949.37	-0.6534	-0.0222	21.470
220.437	949.37	-0.6536	-0.0223	21.471
220.462	949.37	-0.6540	-0.0223	21.472
220.487	949.37	-0.6543	-0.0223	21.474
220.512	949.37	-0.6547	-0.0223	21.475
220.537	949.37	-0.6550	-0.0223	21.478
220.562	949.37	-0.6553	-0.0223	21.480
220.587	949.37	-0.6556	-0.0223	21.481
220.612	949.37	-0.6558	-0.0223	21.482
220.637	949.37	-0.6561	-0.0223	21.483
220.662	949.37	-0.6563	-0.0223	21.483
220.687	949.37	-0.6566	-0.0224	21.483
220.712	949.37	-0.6568	-0.0224	21.484
220.737	949.37	-0.6570	-0.0224	21.484
220.762	949.37	-0.6572	-0.0224	21.484
220.787	949.37	-0.6573	-0.0224	21.484
220.812	949.37	-0.6574	-0.0224	21.485
220.837	949.37	-0.6575	-0.0224	21.486
220.862	949.37	-0.6576	-0.0224	21.486
220.887	949.37	-0.6578	-0.0224	21.486
220.912	949.37	-0.6580	-0.0224	21.486
220.937	949.37	-0.6584	-0.0224	21.487
220.962	949.37	-0.6587	-0.0224	21.486
220.987	949.37	-0.6591	-0.0224	21.485
221.012	949.37	-0.6595	-0.0225	21.483
221.037	949.37	-0.6598	-0.0225	21.484
221.062	949.37	-0.6600	-0.0225	21.486
221.087	949.37	-0.6602	-0.0225	21.488
221.112	949.37	-0.6603	-0.0225	21.491
221.137	949.37	-0.6605	-0.0225	21.493
221.162	949.37	-0.6607	-0.0225	21.495
221.187	949.37	-0.6611	-0.0225	21.498
221.212	949.37	-0.6614	-0.0225	21.501
221.237	949.37	-0.6618	-0.0225	21.504
221.262	949.37	-0.6622	-0.0225	21.505
221.287	949.37	-0.6625	-0.0226	21.506
221.312	949.37	-0.6629	-0.0226	21.507
221.337	949.37	-0.6631	-0.0226	21.508
221.362	949.37	-0.6633	-0.0226	21.508
221.387	949.37	-0.6635	-0.0226	21.507
221.412	949.37	-0.6637	-0.0226	21.506
221.437	949.37	-0.6639	-0.0226	21.505
221.462	949.37	-0.6641	-0.0226	21.506
221.487	949.37	-0.6643	-0.0226	21.509
221.512	949.37	-0.6645	-0.0226	21.513
221.537	949.37	-0.6647	-0.0226	21.515
221.562	949.37	-0.6649	-0.0226	21.516
221.587	949.37	-0.6650	-0.0226	21.517
221.612	949.37	-0.6652	-0.0226	21.518
221.637	949.37	-0.6653	-0.0227	21.518
221.662	949.37	-0.6654	-0.0227	21.518
221.687	949.37	-0.6655	-0.0227	21.518
221.712	949.37	-0.6657	-0.0227	21.517
221.737	949.37	-0.6659	-0.0227	21.517
221.762	949.37	-0.6662	-0.0227	21.518
221.787	949.37	-0.6664	-0.0227	21.517
221.812	949.37	-0.6666	-0.0227	21.517
221.837	949.37	-0.6668	-0.0227	21.518
221.862	949.37	-0.6671	-0.0227	21.520
221.887	949.37	-0.6674	-0.0227	21.523
221.912	949.37	-0.6676	-0.0227	21.527
221.937	949.37	-0.6677	-0.0227	21.531
221.962	949.37	-0.6679	-0.0227	21.536
221.987	949.37	-0.6681	-0.0227	21.540
222.012	949.37	-0.6683	-0.0228	21.543
222.037	949.37	-0.6685	-0.0228	21.546
222.062	949.37	-0.6688	-0.0228	21.547
222.087	949.37	-0.6690	-0.0228	21.549
222.112	949.37	-0.6692	-0.0228	21.552
222.137	949.37	-0.6694	-0.0228	21.555
222.162	949.37	-0.6696	-0.0228	21.558
222.187	949.37	-0.6697	-0.0228	21.559
222.212	949.37	-0.6698	-0.0228	21.561
222.237	949.37	-0.6700	-0.0228	21.561
222.262	949.37	-0.6702	-0.0228	21.561
222.287	949.37	-0.6703	-0.0228	21.561
222.312	949.37	-0.6705	-0.0228	21.562
222.337	949.37	-0.6707	-0.0228	21.564
222.362	949.37	-0.6710	-0.0228	21.566
222.387	949.37	-0.6713	-0.0229	21.567
222.412	949.37	-0.6715	-0.0229	21.567
222.437	949.37	-0.6717	-0.0229	21.566
222.462	949.37	-0.6718	-0.0229	21.568
222.487	949.37	-0.6719	-0.0229	21.570
222.512	949.37	-0.6722	-0.0229	21.572
222.537	949.37	-0.6724	-0.0229	21.576
222.562	949.37	-0.6727	-0.0229	21.579
222.587	949.37	-0.6729	-0.0229	21.582
222.612	949.37	-0.6732	-0.0229	21.584
222.637	949.37	-0.6735	-0.0229	21.586
222.662	949.37	-0.6738	-0.0229	21.588
222.687	949.37	-0.6740	-0.0229	21.591
222.712	949.37	-0.6743	-0.0230	21.593
222.737	949.37	-0.6746	-0.0230	21.594
222.762	949.37	-0.6749	-0.0230	21.596
222.787	949.37	-0.6752	-0.0230	21.596
222.812	949.37	-0.6755	-0.0230	21.597
222.837	949.37	-0.6758	-0.0230	21.598
222.862	949.37	-0.6761	-0.0230	21.599
222.887	949.37	-0.6763	-0.0230	21.600
222.912	949.37	-0.6764	-0.0230	21.602
222.937	949.37	-0.6766	-0.0230	21.604
222.962	949.37	-0.6770	-0.0230	21.605
222.987	949.37	-0.6773	-0.0231	21.605
223.012	949.37	-0.6776	-0.0231	21.606
223.037	949.37	-0.6779	-0.0231	21.607
223.062	949.37	-0.6782	-0.0231	21.607
223.087	949.37	-0.6784	-0.0231	21.607
223.112	949.37	-0.6786	-0.0231	21.606
223.137	949.37	-0.6787	-0.0231	21.606
223.162	949.37	-0.6788	-0.0231	21.607
223.187	949.37	-0.6789	-0.0231	21.608
223.212	949.37	-0.6790	-0.0231	21.609
223.237	949.37	-0.6791	-0.0231	21.611
223.262	949.37	-0.6794	-0.0231	21.613
223.287	949.37	-0.6797	-0.0231	21.616
223.312	949.37	-0.6800	-0.0232	21.617
223.337	949.37	-0.6803	-0.0232	21.618
223.362	949.37	-0.6805	-0.0232	21.619
223.387	949.37	-0.6806	-0.0232	21.621
223.412	949.37	-0.6808	-0.0232	21.624
223.437	949.37	-0.6810	-0.0232	21.627
223.462	949.37	-0.6812	-0.0232	21.629
223.487	949.37	-0.6813	-0.0232	21.632
223.512	949.37	-0.6815	-0.0232	21.633
223.537	949.37	-0.6817	-0.0232	21.634
223.562	949.37	-0.6818	-0.0232	21.636
223.587	949.37	-0.6819	-0.0232	21.641
223.612	949.37	-0.6821	-0.0232	21.645
223.637	949.37	-0.6824	-0.0232	21.648
223.662	949.37	-0.6827	-0.0232	21.650
223.687	949.37	-0.6831	-0.0233	21.651
223.712	949.37	-0.6834	-0.0233	21.653
223.737	949.37	-0.6836	-0.0233	21.655
223.762	949.37	-0.6838	-0.0233	21.657
223.787	949.37	-0.6840	-0.0233	21.658
223.812	949.37	-0.6843	-0.0233	21.661
223.837	949.37	-0.6846	-0.0233	21.663
223.862	949.37	-0.6848	-0.0233	21.665
223.887	949.37	-0.6852	-0.0233	21.668
223.912	949.37	-0.6855	-0.0233	21.671
223.937	949.37	-0.6857	-0.0233	21.675
223.962	949.37	-0.6860	-0.0234	21.679
223.987	949.37	-0.6864	-0.0234	21.683
224.012	949.37	-0.6867	-0.0234	21.686
224.037	949.37	-0.6871	-0.0234	21.690
224.062	949.37	-0.6873	-0.0234	21.697
224.087	949.37	-0.6875	-0.0234	21.704
224.112	949.37	-0.6878	-0.0234	21.710
224.137	949.37	-0.6881	-0.0234	21.713
224.162	949.37	-0.6883	-0.0234	21.714
224.187	949.37	-0.6885	-0.0234	21.715
224.212	949.37	-0.6886	-0.0234	21.715
224.237	949.37	-0.6887	-0.0234	21.715
224.262	949.37	-0.6888	-0.0235	21.715
224.287	949.37	-0.6890	-0.0235	21.715
224.312	949.37	-0.6892	-0.0235	21.716
224.337	949.37	-0.6895	-0.0235	21.718
224.362	949.37	-0.6898	-0.0235	21.719
224.387	949.37	-0.6902	-0.0235	21.721
224.412	949.37	-0.6905	-0.0235	21.723
224.437	949.37	-0.6907	-0.0235	21.726
224.462	949.37	-0.6910	-0.0235	21.729
224.487	949.37	-0.6913	-0.0235	21.731
224.512	949.37	-0.6915	-0.0235	21.733
224.537	949.37	-0.6917	-0.0235	21.735
224.562	949.37	-0.6918	-0.0236	21.737
224.587	949.37	-0.6920	-0.0236	21.739
224.612	949.37	-0.6921	-0.0236	21.739
224.637	949.37	-0.6922	-0.0236	21.737
224.662	949.37	-0.6924	-0.0236	21.736
224.687	949.37	-0.6926	-0.0236	21.734
224.712	949.37	-0.6928	-0.0236	21.733
224.737	949.37	-0.6930	-0.0236	21.733
224.762	949.37	-0.6932	-0.0236	21.733
224.787	949.37	-0.6933	-0.0236	21.732
224.812	949.37	-0.6935	-0.0236	21.730
224.837	949.37	-0.6937	-0.0236	21.728
224.862	949.37	-0.6940	-0.0236	21.726
224.887	949.37	-0.6942	-0.0236	21.726
224.912	949.37	-0.6943	-0.0236	21.726
224.937	949.37	-0.6945	-0.0236	21.726
224.962	949.37	-0.6947	-0.0237	21.728
224.987	949.37	-0.6949	-0.0237	21.731
225.012	949.37	-0.6950	-0.0237	21.733
225.037	949.37	-0.6952	-0.0237	21.734
225.062	949.37	-0.6953	-0.0237	21.733
225.087	949.37	-0.6955	-0.0237	21.731
225.112	949.37	-0.6957	-0.0237	21.729
225.137	949.37	-0.6959	-0.0237	21.729
225.162	949.37	-0.6962	-0.0237	21.728
225.187	949.37	-0.6964	-0.0237	21.729
225.212	949.37	-0.6967	-0.0237	21.730
225.237	949.37	-0.6970	-0.0237	21.731
225.262	949.37	-0.6971	-0.0237	21.732
225.287	949.37	-0.6973	-0.0237	21.734
225.312	949.37	-0.6974	-0.0237	21.736
225.337	949.37	-0.6977	-0.0238	21.739
225.362	949.37	-0.6979	-0.0238	21.741
225.387	949.37	-0.6982	-0.0238	21.742
225.412	949.37	-0.6984	-0.0238	21.744
225.437	949.37	-0.6986	-0.0238	21.747
225.462	949.37	-0.6989	-0.0238	21.751
225.487	949.37	-0.6991	-0.0238	21.755
225.512	949.37	-0.6994	-0.0238	21.759
225.537	949.37	-0.6997	-0.0238	21.761
225.562	949.37	-0.7000	-0.0238	21.763
225.587	949.37	-0.7003	-0.0238	21.765
225.612	949.37	-0.7005	-0.0238	21.768
225.637	949.37	-0.7007	-0.0239	21.772
225.662	949.37	-0.7010	-0.0239	21.777
225.687	949.37	-0.7012	-0.0239	21.782
225.712	949.37	-0.7014	-0.0239	21.785
225.737	949.37	-0.7016	-0.0239	21.788
225.762	949.37	-0.7017	-0.0239	21.791
225.787	949.37	-0.7018	-0.0239	21.793
225.812	949.37	-0.7021	-0.0239	21.796
225.837	949.37	-0.7023	-0.0239	21.799
225.862	949.37	-0.7025	-0.0239	21.800
225.887	949.37	-0.7027	-0.0239	21.802
225.912	949.37	-0.7029	-0.0239	21.802
225.937	949.37	-0.7031	-0.0239	21.803
225.962	949.37	-0.7033	-0.0239	21.804
225.987	949.37	-0.7036	-0.0240	21.805
226.012	949.37	-0.7038	-0.0240	21.806
226.037	949.37	-0.7040	-0.0240	21.807
226.062	949.37	-0.7042	-0.0240	21.808
226.087	949.37	-0.7044	-0.0240	21.809
226.112	949.37	-0.7045	-0.0240	21.810
226.137	949.37	-0.7046	-0.0240	21.811
226.162	949.37	-0.7047	-0.0240	21.813
226.187	949.37	-0.7048	-0.0240	21.814
226.212	949.37	-0.7050	-0.0240	21.815
226.237	949.37	-0.7053	-0.0240	21.814
226.262	949.37	-0.7056	-0.0240	21.813
226.287	949.37	-0.7059	-0.0240	21.812
226.312	949.37	-0.7061	-0.0240	21.811
226.337	949.37	-0.7063	-0.0240	21.811
226.362	949.37	-0.7065	-0.0241	21.811
226.387	949.37	-0.7067	-0.0241	21.811
226.412	949.37	-0.7069	-0.0241	21.811
226.437	949.37	-0.7071	-0.0241	21.811
226.462	949.37	-0.7072	-0.0241	21.813
226.487	949.37	-0.7074	-0.0241	21.816
226.512	949.37	-0.7075	-0.0241	21.820
226.537	949.37	-0.7078	-0.0241	21.822
226.562	949.37	-0.7082	-0.0241	21.824
226.587	949.37	-0.7085	-0.0241	21.826
226.612	949.37	-0.7088	-0.0241	21.828
226.637	949.37	-0.7089	-0.0241	21.832
226.662	949.37	-0.7090	-0.0241	21.836
226.687	949.37	-0.7092	-0.0241	21.839
226.712	949.37	-0.7095	-0.0242	21.843
226.737	949.37	-0.7099	-0.0242	21.846
226.762	949.37	-0.7103	-0.0242	21.849
226.787	949.37	-0.7106	-0.0242	21.850
226.812	949.37	-0.7108	-0.0242	21.852
226.837	949.37	-0.7110	-0.0242	21.853
226.862	949.37	-0.7112	-0.0242	21.855
226.887	949.37	-0.7115	-0.0242	21.857
226.912	949.37	-0.7118	-0.0242	21.859
226.937	949.37	-0.7120	-0.0242	21.861
226.962	949.37	-0.7122	-0.0242	21.863
226.987	949.37	-0.7124	-0.0243	21.866
227.012	949.37	-0.7126	-0.0243	21.869
227.037	949.37	-0.7128	-0.0243	21.872
227.062	949.37	-0.7131	-0.0243	21.876
227.087	949.37	-0.7134	-0.0243	21.879
227.112	949.37	-0.7136	-0.0243	21.880
227.137	949.37	-0.7137	-0.0243	21.880
227.162	949.37	-0.7139	-0.0243	21.881
227.187	949.37	-0.7141	-0.0243	21.883
227.212	949.37	-0.7142	-0.0243	21.885
227.237	949.37	-0.7144	-0.0243	21.886
227.262	949.37	-0.7147	-0.0243	21.888
227.287	949.37	-0.7150	-0.0243	21.890
227.312	949.37	-0.7154	-0.0244	21.891
227.337	949.37	-0.7156	-0.0244	21.891
227.362	949.37	-0.7157	-0.0244	21.890
227.387	949.37	-0.7158	-0.0244	21.889
227.412	949.37	-0.7160	-0.0244	21.889
227.437	949.37	-0.7161	-0.0244	21.890
227.462	949.37	-0.7163	-0.0244	21.893
227.487	949.37	-0.7166	-0.0244	21.897
227.512	949.37	-0.7168	-0.0244	21.899
227.537	949.37	-0.7170	-0.0244	21.899
227.562	949.37	-0.7171	-0.0244	21.899
227.587	949.37	-0.7172	-0.0244	21.898
227.612	949.37	-0.7173	-0.0244	21.898
227.637	949.37	-0.7174	-0.0244	21.900
227.662	949.37	-0.7176	-0.0244	21.902
227.687	949.37	-0.7177	-0.0244	21.905
227.712	949.37	-0.7179	-0.0244	21.908
227.737	949.37	-0.7180	-0.0244	21.912
227.762	949.37	-0.7181	-0.0244	21.916
227.787	949.37	-0.7184	-0.0245	21.919
227.812	949.37	-0.7186	-0.0245	21.921
227.837	949.37	-0.7189	-0.0245	21.922
227.862	949.37	-0.7191	-0.0245	21.925
227.887	949.37	-0.7192	-0.0245	21.929
227.912	949.37	-0.7194	-0.0245	21.933
227.937	949.37	-0.7196	-0.0245	21.937
227.962	949.37	-0.7199	-0.0245	21.940
227.987	949.37	-0.7202	-0.0245	21.942
228.012	949.37	-0.7205	-0.0245	21.942
228.037	949.37	-0.7209	-0.0245	21.943
228.062	949.37	-0.7213	-0.0246	21.944
228.087	949.37	-0.7216	-0.0246	21.945
228.112	949.37	-0.7220	-0.0246	21.947
228.137	949.37	-0.7224	-0.0246	21.948
228.162	949.37	-0.7228	-0.0246	21.949
228.187	949.37	-0.7232	-0.0246	21.951
228.212	949.37	-0.7235	-0.0246	21.953
228.237	949.37	-0.7238	-0.0246	21.956
228.262	949.37	-0.7241	-0.0247	21.959
228.287	949.37	-0.7243	-0.0247	21.963
228.312	949.37	-0.7245	-0.0247	21.967
228.337	949.37	-0.7247	-0.0247	21.971
228.362	949.37	-0.7249	-0.0247	21.976
228.387	949.37	-0.7250	-0.0247	21.981
228.412	949.37	-0.7251	-0.0247	21.987
228.437	949.37	-0.7251	-0.0247	21.992
228.462	949.37	-0.7252	-0.0247	21.996
228.487	949.37	-0.7254	-0.0247	21.997
228.512	949.37	-0.7255	-0.0247	21.998
228.537	949.37	-0.7257	-0.0247	21.998
228.562	949.37	-0.7259	-0.0247	22.000
228.587	949.37	-0.7262	-0.0247	22.003
228.612	949.37	-0.7265	-0.0247	22.007
228.637	949.37	-0.7268	-0.0247	22.011
228.662	949.37	-0.7272	-0.0248	22.015
228.687	949.37	-0.7275	-0.0248	22.019
228.712	949.37	-0.7278	-0.0248	22.021
228.737	949.37	-0.7281	-0.0248	22.022
228.762	949.37	-0.7283	-0.0248	22.022
228.787	949.37	-0.7285	-0.0248	22.020
228.812	949.37	-0.7287	-0.0248	22.017
228.837	949.37	-0.7288	-0.0248	22.013
228.862	949.37	-0.7290	-0.0248	22.009
228.887	949.37	-0.7291	-0.0248	22.006
228.912	949.37	-0.7293	-0.0248	22.006
228.937	949.37	-0.7296	-0.0248	22.007
228.962	949.37	-0.7298	-0.0248	22.008
228.987	949.37	-0.7299	-0.0248	22.010
229.012	949.37	-0.7300	-0.0249	22.011
229.037	949.37	-0.7302	-0.0249	22.013
229.062	949.37	-0.7304	-0.0249	22.015
229.087	949.37	-0.7306	-0.0249	22.017
229.112	949.37	-0.7309	-0.0249	22.019
229.137	949.37	-0.7311	-0.0249	22.022
229.162	949.37	-0.7314	-0.0249	22.025
229.187	949.37	-0.7316	-0.0249	22.028
229.212	949.37	-0.7319	-0.0249	22.030
229.237	949.37	-0.7322	-0.0249	22.032
229.262	949.37	-0.7324	-0.0249	22.034
229.287	949.37	-0.7327	-0.0249	22.036
229.312	949.37	-0.7329	-0.0250	22.039
229.337	949.37	-0.7333	-0.0250	22.042
229.362	949.37	-0.7335	-0.0250	22.046
229.387	949.37	-0.7338	-0.0250	22.050
229.412	949.37	-0.7340	-0.0250	22.051
229.437	949.37	-0.7342	-0.0250	22.053
229.462	949.37	-0.7345	-0.0250	22.054
229.487	949.37	-0.7348	-0.0250	22.056
229.512	949.37	-0.7352	-0.0250	22.059
229.537	949.37	-0.7354	-0.0250	22.062
229.562	949.37	-0.7356	-0.0250	22.065
229.587	949.37	-0.7358	-0.0251	22.067
229.612	949.37	-0.7360	-0.0251	22.069
229.637	949.37	-0.7361	-0.0251	22.069
229.662	949.37	-0.7362	-0.0251	22.069
229.687	949.37	-0.7363	-0.0251	22.069
229.712	949.37	-0.7365	-0.0251	22.068
229.737	949.37	-0.7367	-0.0251	22.067
229.762	949.37	-0.7370	-0.0251	22.067
229.787	949.37	-0.7373	-0.0251	22.068
229.812	949.37	-0.7376	-0.0251	22.070
229.837	949.37	-0.7379	-0.0251	22.071
229.862	949.37	-0.7381	-0.0251	22.073
229.887	949.37	-0.7383	-0.0251	22.075
229.912	949.37	-0.7385	-0.0251	22.077
229.937	949.37	-0.7387	-0.0252	22.078
229.962	949.37	-0.7389	-0.0252	22.080
229.987	949.37	-0.7391	-0.0252	22.081
230.012	949.38	-0.7395	-0.0252	22.082
230.037	949.38	-0.7398	-0.0252	22.084
230.062	949.38	-0.7401	-0.0252	22.085
230.087	949.37	-0.7403	-0.0252	22.087
230.112	949.37	-0.7405	-0.0252	22.089
230.137	949.37	-0.7406	-0.0252	22.091
230.162	949.37	-0.7408	-0.0252	22.093
230.187	949.37	-0.7409	-0.0252	22.095
230.212	949.37	-0.7411	-0.0252	22.096
230.237		-0.7414	-0.0252
230.253		-0.7415	-0.0252