File: example/kas_kinetics/PCOx100_1.txt
Filename	Ox100PC250_1
Instrument name	0650-0369 (192.168.1.2)
Operator	jla278
rundate	12/21/2022
Sample name	Ox100PC250_1
proceduresegments	Select Gas: Gas 2 ; Ramp 10.00 °C/min to 110.00 °C; Isothermal 30.0 min; Ramp 100.00 °C/min to 950.00 °C; Isothermal 5.0 min; Data Off ; Equilibrate 30.00 °C
[step]
Ramp 10.00 °C/min to 110.00 °C
Time	Temperature	Weight	Weight	Heat Flow
min	°C	%	mg	mW
0.003		100.1475	1.3320
0.012		100.3593	1.3348
0.020		100.5852	1.3378
0.028		100.8091	1.3408
0.037		101.0160	1.3435
0.045	23.23	101.1930	1.3459	-27.756
0.053	23.26	101.3384	1.3478	-27.712
0.062	23.30	101.4565	1.3494	-27.673
0.070	23.33	101.5509	1.3506	-27.639
0.078	23.36	101.6203	1.3515	-27.606
0.087	23.39	101.6633	1.3521	-27.574
0.095	23.43	101.6891	1.3525	-27.544
0.103	23.46	101.7040	1.3527	-27.516
0.112	23.49	101.7112	1.3528	-27.489
0.120	23.52	101.7139	1.3528	-27.462
0.128	23.55	101.7142	1.3528	-27.437
0.137	23.59	101.7131	1.3528	-27.411
0.145	23.62	101.7109	1.3528	-27.386
0.153	23.65	101.7080	1.3527	-27.361
0.162	23.68	101.7046	1.3527	-27.336
0.170	23.71	101.7013	1.3526	-27.311
0.178	23.74	101.6979	1.3526	-27.286
0.187	23.77	101.6947	1.3525	-27.260
0.195	23.80	101.6917	1.3525	-27.235
0.203	23.83	101.6889	1.3525	-27.212
0.212	23.87	101.6862	1.3524	-27.189
0.220	23.90	101.6837	1.3524	-27.166
0.228	23.93	101.6812	1.3524	-27.141
0.237	23.96	101.6786	1.3523	-27.119
0.245	23.99	101.6761	1.3523	-27.096
0.253	24.02	101.6734	1.3523	-27.073
0.262	24.05	101.6706	1.3522	-27.050
0.270	24.08	101.6676	1.3522	-27.028
0.278	24.11	101.6643	1.3521	-27.004
0.287	24.14	101.6608	1.3521	-26.982
0.295	24.17	101.6570	1.3520	-26.959
0.303	24.20	101.6529	1.3520	-26.938
0.312	24.23	101.6485	1.3519	-26.915
0.320	24.26	101.6438	1.3519	-26.892
0.328	24.29	101.6389	1.3518	-26.871
0.337	24.32	101.6336	1.3517	-26.849
0.345	24.35	101.6281	1.3517	-26.828
0.353	24.38	101.6223	1.3516	-26.808
0.362	24.41	101.6163	1.3515	-26.788
0.370	24.44	101.6101	1.3514	-26.768
0.378	24.48	101.6036	1.3513	-26.747
0.387	24.51	101.5969	1.3512	-26.727
0.395	24.54	101.5900	1.3511	-26.709
0.403	24.57	101.5827	1.3510	-26.690
0.412	24.60	101.5752	1.3509	-26.671
0.420	24.63	101.5675	1.3508	-26.653
0.428	24.67	101.5595	1.3507	-26.635
0.437	24.70	101.5513	1.3506	-26.616
0.445	24.73	101.5429	1.3505	-26.598
0.453	24.76	101.5343	1.3504	-26.581
0.462	24.80	101.5255	1.3503	-26.564
0.470	24.83	101.5165	1.3502	-26.548
0.478	24.87	101.5073	1.3500	-26.532
0.487	24.90	101.4980	1.3499	-26.516
0.495	24.94	101.4885	1.3498	-26.500
0.503	24.97	101.4789	1.3497	-26.485
0.512	25.01	101.4692	1.3495	-26.470
0.520	25.04	101.4593	1.3494	-26.456
0.528	25.08	101.4494	1.3493	-26.443
0.537	25.12	101.4394	1.3491	-26.429
0.545	25.15	101.4294	1.3490	-26.415
0.553	25.19	101.4194	1.3489	-26.401
0.562	25.23	101.4094	1.3487	-26.387
0.570	25.27	101.3995	1.3486	-26.374
0.578	25.30	101.3897	1.3485	-26.362
0.587	25.34	101.3800	1.3484	-26.349
0.595	25.38	101.3704	1.3482	-26.337
0.603	25.42	101.3609	1.3481	-26.325
0.612	25.46	101.3515	1.3480	-26.311
0.620	25.50	101.3422	1.3479	-26.298
0.628	25.55	101.3330	1.3477	-26.284
0.637	25.59	101.3240	1.3476	-26.271
0.645	25.63	101.3150	1.3475	-26.257
0.653	25.67	101.3062	1.3474	-26.243
0.662	25.71	101.2974	1.3473	-26.229
0.670	25.76	101.2887	1.3471	-26.215
0.678	25.80	101.2800	1.3470	-26.200
0.687	25.85	101.2715	1.3469	-26.186
0.695	25.89	101.2630	1.3468	-26.173
0.703	25.94	101.2547	1.3467	-26.160
0.712	25.98	101.2464	1.3466	-26.148
0.720	26.03	101.2382	1.3465	-26.134
0.728	26.08	101.2301	1.3464	-26.121
0.737	26.12	101.2221	1.3463	-26.108
0.745	26.17	101.2143	1.3461	-26.093
0.753	26.22	101.2065	1.3460	-26.078
0.762	26.27	101.1989	1.3459	-26.063
0.770	26.32	101.1913	1.3458	-26.048
0.778	26.37	101.1838	1.3457	-26.033
0.787	26.42	101.1765	1.3456	-26.017
0.795	26.47	101.1692	1.3455	-26.000
0.803	26.52	101.1620	1.3455	-25.983
0.812	26.57	101.1548	1.3454	-25.967
0.820	26.62	101.1477	1.3453	-25.950
0.828	26.67	101.1406	1.3452	-25.934
0.837	26.73	101.1336	1.3451	-25.919
0.845	26.78	101.1266	1.3450	-25.902
0.853	26.83	101.1197	1.3449	-25.883
0.862	26.89	101.1128	1.3448	-25.865
0.870	26.94	101.1060	1.3447	-25.845
0.878	27.00	101.0991	1.3446	-25.827
0.887	27.05	101.0922	1.3445	-25.807
0.895	27.11	101.0853	1.3444	-25.787
0.903	27.17	101.0783	1.3443	-25.766
0.912	27.22	101.0713	1.3442	-25.745
0.920	27.28	101.0641	1.3442	-25.723
0.928	27.34	101.0569	1.3441	-25.701
0.937	27.40	101.0496	1.3440	-25.680
0.945	27.45	101.0421	1.3439	-25.658
0.953	27.51	101.0346	1.3438	-25.636
0.962	27.57	101.0270	1.3437	-25.612
0.970	27.63	101.0193	1.3436	-25.588
0.978	27.69	101.0116	1.3435	-25.563
0.987	27.76	101.0039	1.3434	-25.538
0.995	27.82	100.9961	1.3432	-25.512
1.003	27.88	100.9882	1.3431	-25.487
1.012	27.94	100.9803	1.3430	-25.460
1.020	28.01	100.9724	1.3429	-25.432
1.028	28.07	100.9644	1.3428	-25.403
1.037	28.13	100.9563	1.3427	-25.373
1.045	28.20	100.9482	1.3426	-25.344
1.053	28.26	100.9401	1.3425	-25.316
1.062	28.33	100.9320	1.3424	-25.287
1.070	28.39	100.9237	1.3423	-25.257
1.078	28.46	100.9155	1.3422	-25.227
1.087	28.53	100.9072	1.3421	-25.196
1.095	28.59	100.8990	1.3420	-25.166
1.103	28.66	100.8907	1.3418	-25.135
1.112	28.73	100.8824	1.3417	-25.103
1.120	28.80	100.8741	1.3416	-25.072
1.128	28.86	100.8658	1.3415	-25.038
1.137	28.93	100.8575	1.3414	-25.004
1.145	29.00	100.8492	1.3413	-24.971
1.153	29.07	100.8410	1.3412	-24.936
1.162	29.14	100.8327	1.3411	-24.900
1.170	29.21	100.8246	1.3410	-24.864
1.178	29.28	100.8165	1.3409	-24.827
1.187	29.36	100.8084	1.3408	-24.790
1.195	29.43	100.8004	1.3406	-24.753
1.203	29.50	100.7925	1.3405	-24.716
1.212	29.57	100.7846	1.3404	-24.679
1.220	29.64	100.7768	1.3403	-24.641
1.228	29.72	100.7691	1.3402	-24.603
1.237	29.79	100.7614	1.3401	-24.564
1.245	29.87	100.7539	1.3400	-24.526
1.253	29.94	100.7465	1.3399	-24.486
1.262	30.02	100.7391	1.3398	-24.447
1.270	30.09	100.7318	1.3397	-24.408
1.278	30.17	100.7245	1.3396	-24.366
1.287	30.24	100.7173	1.3395	-24.326
1.295	30.32	100.7101	1.3394	-24.284
1.303	30.40	100.7029	1.3393	-24.243
1.312	30.47	100.6957	1.3393	-24.202
1.320	30.55	100.6885	1.3392	-24.160
1.328	30.63	100.6813	1.3391	-24.116
1.337	30.71	100.6741	1.3390	-24.073
1.345	30.79	100.6670	1.3389	-24.029
1.353	30.87	100.6599	1.3388	-23.986
1.362	30.94	100.6527	1.3387	-23.942
1.370	31.02	100.6457	1.3386	-23.896
1.378	31.10	100.6386	1.3385	-23.850
1.387	31.18	100.6316	1.3384	-23.803
1.395	31.27	100.6246	1.3383	-23.757
1.403	31.35	100.6177	1.3382	-23.710
1.412	31.43	100.6107	1.3381	-23.663
1.420	31.51	100.6038	1.3380	-23.616
1.428	31.59	100.5968	1.3379	-23.569
1.437	31.67	100.5897	1.3378	-23.521
1.445	31.76	100.5827	1.3377	-23.473
1.453	31.84	100.5756	1.3377	-23.427
1.462	31.92	100.5685	1.3376	-23.380
1.470	32.00	100.5613	1.3375	-23.331
1.478	32.09	100.5542	1.3374	-23.282
1.487	32.17	100.5471	1.3373	-23.233
1.495	32.26	100.5399	1.3372	-23.184
1.503	32.34	100.5326	1.3371	-23.134
1.512	32.42	100.5253	1.3370	-23.084
1.520	32.51	100.5180	1.3369	-23.033
1.528	32.59	100.5107	1.3368	-22.983
1.537	32.68	100.5034	1.3367	-22.930
1.545	32.77	100.4961	1.3366	-22.878
1.553	32.85	100.4887	1.3365	-22.827
1.562	32.94	100.4813	1.3364	-22.775
1.570	33.02	100.4739	1.3363	-22.723
1.578	33.11	100.4664	1.3362	-22.670
1.587	33.20	100.4590	1.3361	-22.616
1.595	33.29	100.4515	1.3360	-22.561
1.603	33.37	100.4441	1.3359	-22.507
1.612	33.46	100.4366	1.3358	-22.453
1.620	33.55	100.4290	1.3357	-22.399
1.628	33.64	100.4215	1.3356	-22.344
1.637	33.72	100.4140	1.3355	-22.288
1.645	33.81	100.4065	1.3354	-22.231
1.653	33.90	100.3989	1.3353	-22.174
1.662	33.99	100.3913	1.3352	-22.117
1.670	34.08	100.3838	1.3351	-22.061
1.678	34.17	100.3762	1.3350	-22.004
1.687	34.26	100.3686	1.3349	-21.947
1.695	34.35	100.3611	1.3348	-21.889
1.703	34.44	100.3537	1.3347	-21.832
1.712	34.53	100.3463	1.3346	-21.773
1.720	34.62	100.3389	1.3345	-21.714
1.728	34.71	100.3316	1.3344	-21.656
1.737	34.80	100.3243	1.3343	-21.597
1.745	34.89	100.3171	1.3342	-21.538
1.753	34.98	100.3099	1.3341	-21.479
1.762	35.07	100.3028	1.3340	-21.421
1.770	35.16	100.2957	1.3339	-21.361
1.778	35.25	100.2886	1.3338	-21.301
1.787	35.34	100.2814	1.3337	-21.241
1.795	35.43	100.2742	1.3336	-21.180
1.803	35.52	100.2670	1.3336	-21.120
1.812	35.61	100.2597	1.3335	-21.060
1.820	35.71	100.2525	1.3334	-21.001
1.828	35.80	100.2452	1.3333	-20.940
1.837	35.89	100.2378	1.3332	-20.879
1.845	35.98	100.2305	1.3331	-20.818
1.853	36.08	100.2232	1.3330	-20.757
1.862	36.17	100.2159	1.3329	-20.696
1.870	36.26	100.2085	1.3328	-20.633
1.878	36.35	100.2012	1.3327	-20.573
1.887	36.45	100.1940	1.3326	-20.511
1.895	36.54	100.1867	1.3325	-20.448
1.903	36.63	100.1794	1.3324	-20.385
1.912	36.72	100.1721	1.3323	-20.322
1.920	36.82	100.1649	1.3322	-20.258
1.928	36.91	100.1577	1.3321	-20.194
1.937	37.00	100.1505	1.3320	-20.129
1.945	37.10	100.1432	1.3319	-20.064
1.953	37.19	100.1360	1.3318	-20.000
1.962	37.28	100.1287	1.3317	-19.935
1.970	37.38	100.1215	1.3316	-19.869
1.978	37.47	100.1142	1.3315	-19.803
1.987	37.57	100.1069	1.3314	-19.738
1.995	37.66	100.0995	1.3313	-19.672
2.003	37.75	100.0921	1.3312	-19.606
2.012	37.85	100.0848	1.3311	-19.541
2.020	37.94	100.0774	1.3310	-19.474
2.028	38.04	100.0700	1.3309	-19.408
2.037	38.13	100.0625	1.3308	-19.341
2.045	38.23	100.0551	1.3307	-19.274
2.053	38.32	100.0477	1.3306	-19.208
2.062	38.41	100.0402	1.3305	-19.140
2.070	38.51	100.0328	1.3304	-19.072
2.078	38.60	100.0254	1.3303	-19.005
2.087	38.70	100.0180	1.3302	-18.937
2.095	38.79	100.0107	1.3301	-18.869
2.103	38.89	100.0033	1.3300	-18.802
2.112	38.98	99.9959	1.3299	-18.734
2.120	39.07	99.9886	1.3298	-18.666
2.128	39.17	99.9812	1.3298	-18.598
2.137	39.26	99.9739	1.3297	-18.530
2.145	39.36	99.9666	1.3296	-18.463
2.153	39.45	99.9593	1.3295	-18.395
2.162	39.55	99.9520	1.3294	-18.326
2.170	39.64	99.9446	1.3293	-18.258
2.178	39.74	99.9374	1.3292	-18.189
2.187	39.83	99.9301	1.3291	-18.120
2.195	39.93	99.9229	1.3290	-18.051
2.203	40.02	99.9157	1.3289	-17.982
2.212	40.12	99.9085	1.3288	-17.912
2.220	40.21	99.9014	1.3287	-17.843
2.228	40.31	99.8942	1.3286	-17.773
2.237	40.40	99.8871	1.3285	-17.704
2.245	40.50	99.8801	1.3284	-17.634
2.253	40.59	99.8731	1.3283	-17.564
2.262	40.69	99.8661	1.3282	-17.495
2.270	40.78	99.8592	1.3281	-17.425
2.278	40.88	99.8523	1.3280	-17.356
2.287	40.97	99.8454	1.3279	-17.286
2.295	41.06	99.8386	1.3279	-17.218
2.303	41.16	99.8318	1.3278	-17.147
2.312	41.25	99.8251	1.3277	-17.077
2.320	41.35	99.8184	1.3276	-17.007
2.328	41.44	99.8118	1.3275	-16.937
2.337	41.54	99.8052	1.3274	-16.868
2.345	41.63	99.7986	1.3273	-16.798
2.353	41.73	99.7920	1.3272	-16.729
2.362	41.82	99.7853	1.3271	-16.659
2.370	41.92	99.7788	1.3271	-16.587
2.378	42.01	99.7722	1.3270	-16.517
2.387	42.10	99.7657	1.3269	-16.448
2.395	42.20	99.7591	1.3268	-16.378
2.403	42.29	99.7526	1.3267	-16.307
2.412	42.39	99.7460	1.3266	-16.235
2.420	42.48	99.7395	1.3265	-16.165
2.428	42.58	99.7331	1.3264	-16.094
2.437	42.67	99.7267	1.3264	-16.022
2.445	42.77	99.7203	1.3263	-15.951
2.453	42.86	99.7140	1.3262	-15.880
2.462	42.96	99.7077	1.3261	-15.809
2.470	43.05	99.7015	1.3260	-15.738
2.478	43.14	99.6953	1.3259	-15.667
2.487	43.24	99.6892	1.3259	-15.598
2.495	43.33	99.6831	1.3258	-15.528
2.503	43.43	99.6771	1.3257	-15.457
2.512	43.52	99.6711	1.3256	-15.387
2.520	43.61	99.6651	1.3255	-15.317
2.528	43.71	99.6591	1.3255	-15.247
2.537	43.80	99.6531	1.3254	-15.176
2.545	43.90	99.6472	1.3253	-15.105
2.553	43.99	99.6413	1.3252	-15.035
2.562	44.08	99.6354	1.3251	-14.966
2.570	44.18	99.6295	1.3251	-14.895
2.578	44.27	99.6236	1.3250	-14.824
2.587	44.36	99.6177	1.3249	-14.753
2.595	44.46	99.6119	1.3248	-14.682
2.603	44.55	99.6061	1.3248	-14.613
2.612	44.64	99.6003	1.3247	-14.543
2.620	44.74	99.5946	1.3246	-14.474
2.628	44.83	99.5890	1.3245	-14.404
2.637	44.92	99.5834	1.3245	-14.333
2.645	45.02	99.5778	1.3244	-14.264
2.653	45.11	99.5722	1.3243	-14.193
2.662	45.20	99.5665	1.3242	-14.124
2.670	45.30	99.5608	1.3242	-14.055
2.678	45.39	99.5551	1.3241	-13.985
2.687	45.48	99.5494	1.3240	-13.914
2.695	45.57	99.5437	1.3239	-13.844
2.703	45.67	99.5379	1.3239	-13.774
2.712	45.76	99.5321	1.3238	-13.704
2.720	45.85	99.5263	1.3237	-13.634
2.728	45.94	99.5205	1.3236	-13.564
2.737	46.04	99.5147	1.3235	-13.496
2.745	46.13	99.5089	1.3235	-13.427
2.753	46.22	99.5032	1.3234	-13.359
2.762	46.31	99.4975	1.3233	-13.289
2.770	46.41	99.4918	1.3232	-13.222
2.778	46.50	99.4861	1.3232	-13.153
2.787	46.59	99.4804	1.3231	-13.084
2.795	46.68	99.4748	1.3230	-13.016
2.803	46.77	99.4692	1.3229	-12.948
2.812	46.87	99.4636	1.3229	-12.880
2.820	46.96	99.4580	1.3228	-12.813
2.828	47.05	99.4525	1.3227	-12.745
2.837	47.14	99.4471	1.3226	-12.676
2.845	47.23	99.4417	1.3226	-12.608
2.853	47.33	99.4363	1.3225	-12.541
2.862	47.42	99.4310	1.3224	-12.472
2.870	47.51	99.4256	1.3224	-12.404
2.878	47.60	99.4203	1.3223	-12.338
2.887	47.69	99.4149	1.3222	-12.271
2.895	47.78	99.4096	1.3221	-12.202
2.903	47.88	99.4042	1.3221	-12.133
2.912	47.97	99.3989	1.3220	-12.064
2.920	48.06	99.3935	1.3219	-11.997
2.928	48.15	99.3881	1.3219	-11.930
2.937	48.24	99.3827	1.3218	-11.862
2.945	48.33	99.3773	1.3217	-11.795
2.953	48.42	99.3719	1.3216	-11.729
2.962	48.51	99.3665	1.3216	-11.662
2.970	48.60	99.3611	1.3215	-11.595
2.978	48.69	99.3557	1.3214	-11.529
2.987	48.78	99.3504	1.3214	-11.463
2.995	48.87	99.3452	1.3213	-11.396
3.003	48.96	99.3400	1.3212	-11.330
3.012	49.05	99.3348	1.3212	-11.263
3.020	49.14	99.3297	1.3211	-11.198
3.028	49.23	99.3246	1.3210	-11.131
3.037	49.32	99.3196	1.3210	-11.064
3.045	49.41	99.3147	1.3209	-10.999
3.053	49.50	99.3098	1.3208	-10.932
3.062	49.59	99.3049	1.3208	-10.867
3.070	49.68	99.3001	1.3207	-10.801
3.078	49.77	99.2952	1.3206	-10.735
3.087	49.86	99.2905	1.3206	-10.671
3.095	49.95	99.2858	1.3205	-10.606
3.103	50.04	99.2812	1.3204	-10.540
3.112	50.13	99.2766	1.3204	-10.475
3.120	50.22	99.2721	1.3203	-10.410
3.128	50.31	99.2677	1.3203	-10.345
3.137	50.40	99.2634	1.3202	-10.281
3.145	50.49	99.2591	1.3201	-10.217
3.153	50.58	99.2549	1.3201	-10.153
3.162	50.67	99.2507	1.3200	-10.090
3.170	50.76	99.2466	1.3200	-10.025
3.178	50.85	99.2425	1.3199	-9.961
3.187	50.94	99.2385	1.3199	-9.899
3.195	51.02	99.2346	1.3198	-9.837
3.203	51.11	99.2307	1.3198	-9.775
3.212	51.20	99.2269	1.3197	-9.711
3.220	51.29	99.2231	1.3197	-9.646
3.228	51.38	99.2194	1.3196	-9.583
3.237	51.47	99.2157	1.3196	-9.520
3.245	51.56	99.2121	1.3195	-9.457
3.253	51.65	99.2085	1.3195	-9.395
3.262	51.73	99.2049	1.3194	-9.332
3.270	51.82	99.2013	1.3194	-9.269
3.278	51.91	99.1978	1.3193	-9.206
3.287	52.00	99.1942	1.3193	-9.144
3.295	52.09	99.1907	1.3192	-9.084
3.303	52.18	99.1872	1.3192	-9.023
3.312	52.26	99.1837	1.3191	-8.962
3.320	52.35	99.1802	1.3191	-8.901
3.328	52.44	99.1767	1.3191	-8.840
3.337	52.53	99.1733	1.3190	-8.780
3.345	52.62	99.1699	1.3190	-8.720
3.353	52.70	99.1665	1.3189	-8.660
3.362	52.79	99.1632	1.3189	-8.600
3.370	52.88	99.1599	1.3188	-8.541
3.378	52.97	99.1565	1.3188	-8.481
3.387	53.05	99.1532	1.3187	-8.421
3.395	53.14	99.1499	1.3187	-8.361
3.403	53.23	99.1466	1.3186	-8.302
3.412	53.32	99.1433	1.3186	-8.242
3.420	53.40	99.1401	1.3186	-8.182
3.428	53.49	99.1368	1.3185	-8.124
3.437	53.58	99.1336	1.3185	-8.064
3.445	53.67	99.1303	1.3184	-8.005
3.453	53.75	99.1271	1.3184	-7.946
3.462	53.84	99.1239	1.3183	-7.887
3.470	53.93	99.1207	1.3183	-7.828
3.478	54.02	99.1176	1.3183	-7.770
3.487	54.10	99.1146	1.3182	-7.712
3.495	54.19	99.1116	1.3182	-7.655
3.503	54.28	99.1086	1.3181	-7.595
3.512	54.37	99.1057	1.3181	-7.537
3.520	54.45	99.1028	1.3181	-7.480
3.528	54.54	99.0999	1.3180	-7.423
3.537	54.63	99.0971	1.3180	-7.366
3.545	54.71	99.0943	1.3180	-7.309
3.553	54.80	99.0915	1.3179	-7.252
3.562	54.89	99.0887	1.3179	-7.195
3.570	54.97	99.0860	1.3178	-7.138
3.578	55.06	99.0832	1.3178	-7.080
3.587	55.15	99.0804	1.3178	-7.024
3.595	55.23	99.0776	1.3177	-6.968
3.603	55.32	99.0749	1.3177	-6.912
3.612	55.41	99.0722	1.3177	-6.856
3.620	55.49	99.0695	1.3176	-6.801
3.628	55.58	99.0667	1.3176	-6.745
3.637	55.67	99.0640	1.3176	-6.690
3.645	55.75	99.0613	1.3175	-6.635
3.653	55.84	99.0586	1.3175	-6.580
3.662	55.92	99.0560	1.3174	-6.525
3.670	56.01	99.0534	1.3174	-6.471
3.678	56.10	99.0508	1.3174	-6.417
3.687	56.18	99.0483	1.3173	-6.362
3.695	56.27	99.0457	1.3173	-6.307
3.703	56.36	99.0432	1.3173	-6.254
3.712	56.44	99.0408	1.3172	-6.200
3.720	56.53	99.0383	1.3172	-6.146
3.728	56.61	99.0360	1.3172	-6.093
3.737	56.70	99.0336	1.3171	-6.040
3.745	56.79	99.0313	1.3171	-5.988
3.753	56.87	99.0290	1.3171	-5.935
3.762	56.96	99.0267	1.3171	-5.882
3.770	57.04	99.0245	1.3170	-5.828
3.778	57.13	99.0223	1.3170	-5.775
3.787	57.21	99.0202	1.3170	-5.723
3.795	57.30	99.0180	1.3169	-5.671
3.803	57.39	99.0158	1.3169	-5.618
3.812	57.47	99.0137	1.3169	-5.567
3.820	57.56	99.0116	1.3169	-5.515
3.828	57.64	99.0095	1.3168	-5.463
3.837	57.73	99.0073	1.3168	-5.412
3.845	57.81	99.0052	1.3168	-5.361
3.853	57.90	99.0031	1.3167	-5.311
3.862	57.99	99.0010	1.3167	-5.260
3.870	58.07	98.9989	1.3167	-5.209
3.878	58.16	98.9969	1.3167	-5.159
3.887	58.24	98.9948	1.3166	-5.107
3.895	58.33	98.9928	1.3166	-5.056
3.903	58.41	98.9907	1.3166	-5.006
3.912	58.50	98.9887	1.3165	-4.955
3.920	58.58	98.9867	1.3165	-4.905
3.928	58.67	98.9847	1.3165	-4.855
3.937	58.76	98.9826	1.3165	-4.805
3.945	58.84	98.9806	1.3164	-4.756
3.953	58.93	98.9786	1.3164	-4.707
3.962	59.01	98.9766	1.3164	-4.657
3.970	59.10	98.9746	1.3164	-4.609
3.978	59.18	98.9725	1.3163	-4.560
3.987	59.27	98.9705	1.3163	-4.510
3.995	59.35	98.9685	1.3163	-4.463
4.003	59.44	98.9665	1.3163	-4.414
4.012	59.52	98.9645	1.3162	-4.366
4.020	59.61	98.9625	1.3162	-4.317
4.028	59.69	98.9605	1.3162	-4.268
4.037	59.78	98.9585	1.3161	-4.220
4.045	59.86	98.9566	1.3161	-4.173
4.053	59.95	98.9547	1.3161	-4.126
4.062	60.03	98.9528	1.3161	-4.079
4.070	60.12	98.9510	1.3160	-4.033
4.078	60.20	98.9492	1.3160	-3.986
4.087	60.29	98.9475	1.3160	-3.939
4.095	60.37	98.9457	1.3160	-3.892
4.103	60.46	98.9440	1.3160	-3.846
4.112	60.54	98.9422	1.3159	-3.800
4.120	60.63	98.9405	1.3159	-3.752
4.128	60.71	98.9389	1.3159	-3.706
4.137	60.80	98.9372	1.3159	-3.660
4.145	60.88	98.9356	1.3158	-3.615
4.153	60.97	98.9339	1.3158	-3.569
4.162	61.05	98.9322	1.3158	-3.523
4.170	61.14	98.9305	1.3158	-3.479
4.178	61.22	98.9289	1.3158	-3.435
4.187	61.31	98.9272	1.3157	-3.391
4.195	61.39	98.9255	1.3157	-3.348
4.203	61.48	98.9238	1.3157	-3.305
4.212	61.56	98.9221	1.3157	-3.261
4.220	61.65	98.9204	1.3156	-3.217
4.228	61.73	98.9186	1.3156	-3.172
4.237	61.82	98.9169	1.3156	-3.129
4.245	61.90	98.9152	1.3156	-3.086
4.253	61.99	98.9135	1.3155	-3.042
4.262	62.07	98.9119	1.3155	-2.998
4.270	62.16	98.9102	1.3155	-2.954
4.278	62.24	98.9086	1.3155	-2.910
4.287	62.33	98.9070	1.3155	-2.866
4.295	62.41	98.9053	1.3154	-2.822
4.303	62.50	98.9037	1.3154	-2.778
4.312	62.58	98.9021	1.3154	-2.736
4.320	62.67	98.9005	1.3154	-2.693
4.328	62.75	98.8989	1.3154	-2.651
4.337	62.84	98.8973	1.3153	-2.609
4.345	62.92	98.8958	1.3153	-2.568
4.353	63.01	98.8942	1.3153	-2.526
4.362	63.09	98.8927	1.3153	-2.484
4.370	63.17	98.8911	1.3153	-2.443
4.378	63.26	98.8895	1.3152	-2.403
4.387	63.34	98.8880	1.3152	-2.363
4.395	63.43	98.8864	1.3152	-2.322
4.403	63.51	98.8848	1.3152	-2.280
4.412	63.60	98.8833	1.3151	-2.240
4.420	63.68	98.8817	1.3151	-2.199
4.428	63.77	98.8802	1.3151	-2.158
4.437	63.85	98.8787	1.3151	-2.118
4.445	63.94	98.8772	1.3151	-2.078
4.453	64.02	98.8758	1.3150	-2.037
4.462	64.11	98.8744	1.3150	-1.996
4.470	64.19	98.8730	1.3150	-1.955
4.478	64.28	98.8716	1.3150	-1.916
4.487	64.36	98.8702	1.3150	-1.878
4.495	64.45	98.8688	1.3150	-1.838
4.503	64.53	98.8673	1.3149	-1.799
4.512	64.62	98.8659	1.3149	-1.759
4.520	64.70	98.8643	1.3149	-1.720
4.528	64.79	98.8628	1.3149	-1.681
4.537	64.87	98.8612	1.3149	-1.641
4.545	64.96	98.8597	1.3148	-1.603
4.553	65.04	98.8580	1.3148	-1.565
4.562	65.12	98.8564	1.3148	-1.526
4.570	65.21	98.8548	1.3148	-1.486
4.578	65.29	98.8533	1.3147	-1.446
4.587	65.38	98.8517	1.3147	-1.408
4.595	65.46	98.8502	1.3147	-1.368
4.603	65.55	98.8487	1.3147	-1.329
4.612	65.63	98.8472	1.3147	-1.292
4.620	65.72	98.8458	1.3146	-1.254
4.628	65.80	98.8444	1.3146	-1.217
4.637	65.89	98.8431	1.3146	-1.180
4.645	65.97	98.8418	1.3146	-1.142
4.653	66.06	98.8405	1.3146	-1.104
4.662	66.14	98.8392	1.3146	-1.068
4.670	66.23	98.8379	1.3145	-1.032
4.678	66.31	98.8366	1.3145	-0.997
4.687	66.40	98.8353	1.3145	-0.961
4.695	66.48	98.8341	1.3145	-0.926
4.703	66.57	98.8328	1.3145	-0.890
4.712	66.65	98.8314	1.3145	-0.855
4.720	66.74	98.8301	1.3144	-0.820
4.728	66.82	98.8287	1.3144	-0.785
4.737	66.91	98.8273	1.3144	-0.749
4.745	66.99	98.8260	1.3144	-0.713
4.753	67.08	98.8246	1.3144	-0.677
4.762	67.16	98.8231	1.3143	-0.640
4.770	67.25	98.8217	1.3143	-0.606
4.778	67.33	98.8203	1.3143	-0.569
4.787	67.42	98.8188	1.3143	-0.533
4.795	67.50	98.8174	1.3143	-0.496
4.803	67.59	98.8160	1.3143	-0.461
4.812	67.67	98.8146	1.3142	-0.427
4.820	67.76	98.8132	1.3142	-0.394
4.828	67.84	98.8119	1.3142	-0.360
4.837	67.93	98.8107	1.3142	-0.326
4.845	68.01	98.8095	1.3142	-0.293
4.853	68.10	98.8083	1.3142	-0.258
4.862	68.18	98.8072	1.3141	-0.224
4.870	68.27	98.8060	1.3141	-0.190
4.878	68.35	98.8049	1.3141	-0.157
4.887	68.44	98.8038	1.3141	-0.123
4.895	68.52	98.8028	1.3141	-0.088
4.903	68.61	98.8017	1.3141	-0.054
4.912	68.69	98.8007	1.3140	-0.020
4.920	68.78	98.7997	1.3140	0.013
4.928	68.86	98.7987	1.3140	0.045
4.937	68.95	98.7976	1.3140	0.077
4.945	69.03	98.7965	1.3140	0.107
4.953	69.12	98.7955	1.3140	0.138
4.962	69.20	98.7944	1.3140	0.171
4.970	69.29	98.7932	1.3139	0.203
4.978	69.37	98.7921	1.3139	0.234
4.987	69.46	98.7909	1.3139	0.265
4.995	69.54	98.7897	1.3139	0.296
5.003	69.63	98.7885	1.3139	0.326
5.012	69.71	98.7873	1.3139	0.357
5.020	69.80	98.7860	1.3139	0.388
5.028	69.88	98.7848	1.3138	0.420
5.037	69.97	98.7835	1.3138	0.451
5.045	70.05	98.7823	1.3138	0.480
5.053	70.14	98.7811	1.3138	0.511
5.062	70.22	98.7799	1.3138	0.542
5.070	70.31	98.7787	1.3138	0.574
5.078	70.39	98.7775	1.3137	0.604
5.087	70.48	98.7763	1.3137	0.636
5.095	70.57	98.7752	1.3137	0.667
5.103	70.65	98.7741	1.3137	0.699
5.112	70.74	98.7731	1.3137	0.729
5.120	70.82	98.7720	1.3137	0.759
5.128	70.91	98.7709	1.3137	0.790
5.137	70.99	98.7697	1.3136	0.820
5.145	71.08	98.7686	1.3136	0.850
5.153	71.16	98.7674	1.3136	0.879
5.162	71.25	98.7662	1.3136	0.909
5.170	71.33	98.7650	1.3136	0.938
5.178	71.42	98.7637	1.3136	0.968
5.187	71.50	98.7621	1.3135	0.997
5.195	71.59	98.7602	1.3135	1.026
5.203	71.67	98.7582	1.3135	1.056
5.212	71.76	98.7562	1.3135	1.086
5.220	71.84	98.7542	1.3134	1.115
5.228	71.93	98.7523	1.3134	1.144
5.237	72.01	98.7505	1.3134	1.173
5.245	72.10	98.7488	1.3134	1.202
5.253	72.18	98.7471	1.3133	1.232
5.262	72.27	98.7457	1.3133	1.261
5.270	72.36	98.7445	1.3133	1.290
5.278	72.44	98.7437	1.3133	1.318
5.287	72.53	98.7430	1.3133	1.345
5.295	72.61	98.7425	1.3133	1.372
5.303	72.70	98.7420	1.3133	1.400
5.312	72.78	98.7413	1.3133	1.429
5.320	72.87	98.7407	1.3133	1.456
5.328	72.95	98.7399	1.3132	1.484
5.337	73.04	98.7392	1.3132	1.511
5.345	73.13	98.7384	1.3132	1.538
5.353	73.21	98.7375	1.3132	1.565
5.362	73.30	98.7366	1.3132	1.592
5.370	73.38	98.7357	1.3132	1.620
5.378	73.47	98.7347	1.3132	1.646
5.387	73.55	98.7337	1.3132	1.672
5.395	73.64	98.7326	1.3131	1.697
5.403	73.72	98.7315	1.3131	1.723
5.412	73.81	98.7303	1.3131	1.748
5.420	73.89	98.7291	1.3131	1.774
5.428	73.98	98.7280	1.3131	1.800
5.437	74.07	98.7268	1.3131	1.827
5.445	74.15	98.7255	1.3130	1.853
5.453	74.24	98.7243	1.3130	1.880
5.462	74.32	98.7230	1.3130	1.907
5.470	74.41	98.7217	1.3130	1.935
5.478	74.49	98.7205	1.3130	1.962
5.487	74.58	98.7192	1.3130	1.989
5.495	74.66	98.7179	1.3129	2.015
5.503	74.75	98.7166	1.3129	2.041
5.512	74.84	98.7152	1.3129	2.067
5.520	74.92	98.7139	1.3129	2.092
5.528	75.01	98.7126	1.3129	2.117
5.537	75.09	98.7112	1.3129	2.142
5.545	75.18	98.7099	1.3128	2.165
5.553	75.27	98.7086	1.3128	2.188
5.562	75.35	98.7073	1.3128	2.211
5.570	75.44	98.7060	1.3128	2.236
5.578	75.52	98.7047	1.3128	2.259
5.587	75.61	98.7034	1.3128	2.283
5.595	75.69	98.7021	1.3127	2.308
5.603	75.78	98.7008	1.3127	2.331
5.612	75.87	98.6995	1.3127	2.356
5.620	75.95	98.6982	1.3127	2.380
5.628	76.04	98.6969	1.3127	2.405
5.637	76.12	98.6956	1.3127	2.430
5.645	76.21	98.6942	1.3126	2.455
5.653	76.29	98.6929	1.3126	2.478
5.662	76.38	98.6916	1.3126	2.502
5.670	76.46	98.6903	1.3126	2.525
5.678	76.55	98.6890	1.3126	2.548
5.687	76.64	98.6877	1.3125	2.572
5.695	76.72	98.6864	1.3125	2.596
5.703	76.81	98.6850	1.3125	2.619
5.712	76.89	98.6836	1.3125	2.643
5.720	76.98	98.6822	1.3125	2.666
5.728	77.07	98.6808	1.3125	2.688
5.737	77.15	98.6794	1.3124	2.712
5.745	77.24	98.6780	1.3124	2.736
5.753	77.32	98.6765	1.3124	2.759
5.762	77.41	98.6751	1.3124	2.782
5.770	77.50	98.6736	1.3124	2.804
5.778	77.58	98.6722	1.3123	2.825
5.787	77.67	98.6708	1.3123	2.845
5.795	77.75	98.6694	1.3123	2.866
5.803	77.84	98.6680	1.3123	2.888
5.812	77.92	98.6668	1.3123	2.910
5.820	78.01	98.6655	1.3123	2.932
5.828	78.10	98.6643	1.3122	2.953
5.837	78.18	98.6631	1.3122	2.974
5.845	78.27	98.6619	1.3122	2.996
5.853	78.35	98.6606	1.3122	3.017
5.862	78.44	98.6595	1.3122	3.039
5.870	78.52	98.6582	1.3122	3.062
5.878	78.61	98.6570	1.3121	3.085
5.887	78.70	98.6558	1.3121	3.106
5.895	78.78	98.6546	1.3121	3.127
5.903	78.87	98.6533	1.3121	3.148
5.912	78.96	98.6521	1.3121	3.170
5.920	79.04	98.6508	1.3121	3.191
5.928	79.13	98.6495	1.3120	3.212
5.937	79.21	98.6482	1.3120	3.232
5.945	79.30	98.6469	1.3120	3.253
5.953	79.38	98.6456	1.3120	3.274
5.962	79.47	98.6443	1.3120	3.295
5.970	79.56	98.6430	1.3120	3.315
5.978	79.64	98.6418	1.3119	3.336
5.987	79.73	98.6405	1.3119	3.358
5.995	79.81	98.6392	1.3119	3.377
6.003	79.90	98.6380	1.3119	3.398
6.012	79.99	98.6368	1.3119	3.419
6.020	80.07	98.6355	1.3119	3.440
6.028	80.16	98.6343	1.3118	3.460
6.037	80.25	98.6330	1.3118	3.480
6.045	80.33	98.6318	1.3118	3.499
6.053	80.42	98.6305	1.3118	3.519
6.062	80.50	98.6292	1.3118	3.539
6.070	80.59	98.6279	1.3118	3.558
6.078	80.68	98.6266	1.3117	3.578
6.087	80.76	98.6253	1.3117	3.597
6.095	80.85	98.6240	1.3117	3.616
6.103	80.93	98.6228	1.3117	3.635
6.112	81.02	98.6215	1.3117	3.655
6.120	81.11	98.6203	1.3116	3.674
6.128	81.19	98.6191	1.3116	3.693
6.137	81.28	98.6179	1.3116	3.712
6.145	81.36	98.6167	1.3116	3.730
6.153	81.45	98.6155	1.3116	3.749
6.162	81.54	98.6144	1.3116	3.768
6.170	81.62	98.6133	1.3116	3.786
6.178	81.71	98.6121	1.3115	3.805
6.187	81.79	98.6110	1.3115	3.823
6.195	81.88	98.6099	1.3115	3.841
6.203	81.97	98.6089	1.3115	3.859
6.212	82.05	98.6078	1.3115	3.877
6.220	82.14	98.6068	1.3115	3.895
6.228	82.23	98.6058	1.3115	3.913
6.237	82.31	98.6048	1.3114	3.931
6.245	82.40	98.6038	1.3114	3.948
6.253	82.48	98.6029	1.3114	3.966
6.262	82.57	98.6020	1.3114	3.984
6.270	82.66	98.6011	1.3114	4.001
6.278	82.74	98.6002	1.3114	4.018
6.287	82.83	98.5993	1.3114	4.036
6.295	82.91	98.5985	1.3114	4.053
6.303	83.00	98.5976	1.3113	4.069
6.312	83.09	98.5967	1.3113	4.085
6.320	83.17	98.5959	1.3113	4.100
6.328	83.26	98.5950	1.3113	4.116
6.337	83.34	98.5942	1.3113	4.133
6.345	83.43	98.5933	1.3113	4.149
6.353	83.51	98.5924	1.3113	4.166
6.362	83.60	98.5916	1.3113	4.182
6.370	83.69	98.5907	1.3113	4.198
6.378	83.77	98.5899	1.3112	4.215
6.387	83.86	98.5890	1.3112	4.232
6.395	83.95	98.5882	1.3112	4.249
6.403	84.03	98.5874	1.3112	4.266
6.412	84.12	98.5866	1.3112	4.283
6.420	84.20	98.5858	1.3112	4.299
6.428	84.29	98.5851	1.3112	4.316
6.437	84.38	98.5843	1.3112	4.331
6.445	84.46	98.5835	1.3112	4.346
6.453	84.55	98.5827	1.3111	4.361
6.462	84.63	98.5819	1.3111	4.376
6.470	84.72	98.5811	1.3111	4.391
6.478	84.81	98.5804	1.3111	4.407
6.487	84.89	98.5796	1.3111	4.422
6.495	84.98	98.5788	1.3111	4.437
6.503	85.06	98.5780	1.3111	4.453
6.512	85.15	98.5772	1.3111	4.469
6.520	85.24	98.5765	1.3111	4.485
6.528	85.32	98.5758	1.3111	4.501
6.537	85.41	98.5752	1.3110	4.517
6.545	85.49	98.5745	1.3110	4.533
6.553	85.58	98.5739	1.3110	4.548
6.562	85.67	98.5732	1.3110	4.563
6.570	85.75	98.5726	1.3110	4.578
6.578	85.84	98.5721	1.3110	4.593
6.587	85.93	98.5715	1.3110	4.607
6.595	86.01	98.5710	1.3110	4.622
6.603	86.10	98.5704	1.3110	4.635
6.612	86.18	98.5698	1.3110	4.650
6.620	86.27	98.5692	1.3110	4.664
6.628	86.36	98.5686	1.3110	4.678
6.637	86.44	98.5680	1.3110	4.693
6.645	86.53	98.5673	1.3109	4.707
6.653	86.61	98.5668	1.3109	4.722
6.662	86.70	98.5661	1.3109	4.736
6.670	86.79	98.5655	1.3109	4.749
6.678	86.87	98.5648	1.3109	4.763
6.687	86.96	98.5641	1.3109	4.776
6.695	87.04	98.5635	1.3109	4.790
6.703	87.13	98.5628	1.3109	4.805
6.712	87.22	98.5621	1.3109	4.820
6.720	87.30	98.5614	1.3109	4.834
6.728	87.39	98.5607	1.3109	4.848
6.737	87.47	98.5600	1.3108	4.862
6.745	87.56	98.5592	1.3108	4.875
6.753	87.65	98.5584	1.3108	4.890
6.762	87.73	98.5578	1.3108	4.903
6.770	87.82	98.5571	1.3108	4.916
6.778	87.91	98.5564	1.3108	4.928
6.787	87.99	98.5556	1.3108	4.940
6.795	88.08	98.5549	1.3108	4.951
6.803	88.16	98.5542	1.3108	4.963
6.812	88.25	98.5535	1.3108	4.975
6.820	88.34	98.5528	1.3108	4.987
6.828	88.42	98.5521	1.3107	5.000
6.837	88.51	98.5513	1.3107	5.014
6.845	88.59	98.5506	1.3107	5.027
6.853	88.68	98.5498	1.3107	5.040
6.862	88.77	98.5491	1.3107	5.055
6.870	88.85	98.5483	1.3107	5.070
6.878	88.94	98.5476	1.3107	5.085
6.887	89.03	98.5468	1.3107	5.099
6.895	89.11	98.5461	1.3107	5.113
6.903	89.20	98.5454	1.3107	5.126
6.912	89.28	98.5447	1.3106	5.138
6.920	89.37	98.5441	1.3106	5.150
6.928	89.46	98.5434	1.3106	5.161
6.937	89.54	98.5427	1.3106	5.174
6.945	89.63	98.5420	1.3106	5.185
6.953	89.71	98.5413	1.3106	5.195
6.962	89.80	98.5407	1.3106	5.204
6.970	89.88	98.5400	1.3106	5.214
6.978	89.97	98.5394	1.3106	5.224
6.987	90.06	98.5387	1.3106	5.235
6.995	90.14	98.5380	1.3106	5.247
7.003	90.23	98.5373	1.3105	5.259
7.012	90.31	98.5367	1.3105	5.271
7.020	90.40	98.5360	1.3105	5.283
7.028	90.49	98.5353	1.3105	5.294
7.037	90.57	98.5347	1.3105	5.306
7.045	90.66	98.5340	1.3105	5.319
7.053	90.74	98.5333	1.3105	5.331
7.062	90.83	98.5327	1.3105	5.345
7.070	90.92	98.5320	1.3105	5.356
7.078	91.00	98.5314	1.3105	5.368
7.087	91.09	98.5309	1.3105	5.378
7.095	91.17	98.5303	1.3105	5.389
7.103	91.26	98.5297	1.3104	5.400
7.112	91.35	98.5291	1.3104	5.410
7.120	91.43	98.5285	1.3104	5.421
7.128	91.52	98.5280	1.3104	5.433
7.137	91.60	98.5274	1.3104	5.444
7.145	91.69	98.5269	1.3104	5.454
7.153	91.78	98.5263	1.3104	5.464
7.162	91.86	98.5257	1.3104	5.475
7.170	91.95	98.5250	1.3104	5.485
7.178	92.03	98.5244	1.3104	5.495
7.187	92.12	98.5238	1.3104	5.505
7.195	92.21	98.5231	1.3104	5.514
7.203	92.29	98.5225	1.3103	5.524
7.212	92.38	98.5218	1.3103	5.534
7.220	92.46	98.5211	1.3103	5.543
7.228	92.55	98.5203	1.3103	5.552
7.237	92.64	98.5196	1.3103	5.562
7.245	92.72	98.5189	1.3103	5.571
7.253	92.81	98.5182	1.3103	5.581
7.262	92.89	98.5175	1.3103	5.592
7.270	92.98	98.5168	1.3103	5.604
7.278	93.07	98.5161	1.3103	5.615
7.287	93.15	98.5155	1.3103	5.625
7.295	93.24	98.5148	1.3102	5.635
7.303	93.32	98.5142	1.3102	5.644
7.312	93.41	98.5136	1.3102	5.653
7.320	93.49	98.5130	1.3102	5.663
7.328	93.58	98.5124	1.3102	5.672
7.337	93.67	98.5117	1.3102	5.681
7.345	93.75	98.5110	1.3102	5.690
7.353	93.84	98.5103	1.3102	5.698
7.362	93.92	98.5095	1.3102	5.707
7.370	94.01	98.5087	1.3102	5.717
7.378	94.10	98.5079	1.3102	5.725
7.387	94.18	98.5071	1.3101	5.734
7.395	94.27	98.5062	1.3101	5.744
7.403	94.35	98.5054	1.3101	5.753
7.412	94.44	98.5045	1.3101	5.761
7.420	94.53	98.5036	1.3101	5.769
7.428	94.61	98.5027	1.3101	5.777
7.437	94.70	98.5018	1.3101	5.784
7.445	94.78	98.5009	1.3101	5.792
7.453	94.87	98.4999	1.3100	5.800
7.462	94.95	98.4990	1.3100	5.808
7.470	95.04	98.4980	1.3100	5.817
7.478	95.13	98.4970	1.3100	5.825
7.487	95.21	98.4960	1.3100	5.834
7.495	95.30	98.4950	1.3100	5.842
7.503	95.38	98.4939	1.3100	5.850
7.512	95.47	98.4929	1.3100	5.859
7.520	95.56	98.4918	1.3099	5.867
7.528	95.64	98.4908	1.3099	5.874
7.537	95.73	98.4897	1.3099	5.882
7.545	95.81	98.4887	1.3099	5.889
7.553	95.90	98.4877	1.3099	5.897
7.562	95.99	98.4867	1.3099	5.904
7.570	96.07	98.4857	1.3099	5.912
7.578	96.16	98.4848	1.3098	5.920
7.587	96.24	98.4838	1.3098	5.928
7.595	96.33	98.4829	1.3098	5.936
7.603	96.41	98.4820	1.3098	5.944
7.612	96.50	98.4811	1.3098	5.952
7.620	96.59	98.4803	1.3098	5.960
7.628	96.67	98.4795	1.3098	5.968
7.637	96.76	98.4787	1.3098	5.975
7.645	96.84	98.4779	1.3098	5.981
7.653	96.93	98.4771	1.3097	5.988
7.662	97.02	98.4764	1.3097	5.994
7.670	97.10	98.4756	1.3097	6.001
7.678	97.19	98.4749	1.3097	6.007
7.687	97.27	98.4741	1.3097	6.013
7.695	97.36	98.4733	1.3097	6.020
7.703	97.44	98.4724	1.3097	6.027
7.712	97.53	98.4716	1.3097	6.033
7.720	97.62	98.4707	1.3097	6.040
7.728	97.70	98.4697	1.3096	6.046
7.737	97.79	98.4687	1.3096	6.053
7.745	97.87	98.4678	1.3096	6.059
7.753	97.96	98.4669	1.3096	6.066
7.762	98.05	98.4661	1.3096	6.073
7.770	98.13	98.4652	1.3096	6.079
7.778	98.22	98.4644	1.3096	6.085
7.787	98.30	98.4636	1.3096	6.090
7.795	98.39	98.4628	1.3096	6.097
7.803	98.47	98.4620	1.3095	6.103
7.812	98.56	98.4612	1.3095	6.109
7.820	98.64	98.4604	1.3095	6.115
7.828	98.73	98.4596	1.3095	6.122
7.837	98.82	98.4588	1.3095	6.129
7.845	98.90	98.4579	1.3095	6.135
7.853	98.99	98.4571	1.3095	6.142
7.862	99.07	98.4562	1.3095	6.148
7.870	99.16	98.4554	1.3095	6.154
7.878	99.25	98.4546	1.3094	6.161
7.887	99.33	98.4538	1.3094	6.167
7.895	99.42	98.4531	1.3094	6.173
7.903	99.50	98.4523	1.3094	6.179
7.912	99.59	98.4516	1.3094	6.185
7.920	99.67	98.4509	1.3094	6.190
7.928	99.76	98.4502	1.3094	6.196
7.937	99.85	98.4495	1.3094	6.202
7.945	99.93	98.4487	1.3094	6.208
7.953	100.02	98.4480	1.3094	6.213
7.962	100.10	98.4472	1.3093	6.219
7.970	100.19	98.4464	1.3093	6.224
7.978	100.27	98.4456	1.3093	6.229
7.987	100.36	98.4448	1.3093	6.234
7.995	100.45	98.4440	1.3093	6.240
8.003	100.53	98.4431	1.3093	6.245
8.012	100.62	98.4423	1.3093	6.250
8.020	100.70	98.4416	1.3093	6.255
8.028	100.79	98.4408	1.3093	6.260
8.037	100.87	98.4401	1.3093	6.265
8.045	100.96	98.4394	1.3092	6.269
8.053	101.04	98.4387	1.3092	6.274
8.062	101.13	98.4381	1.3092	6.279
8.070	101.22	98.4374	1.3092	6.284
8.078	101.30	98.4368	1.3092	6.288
8.087	101.39	98.4362	1.3092	6.292
8.095	101.47	98.4355	1.3092	6.296
8.103	101.56	98.4349	1.3092	6.300
8.112	101.64	98.4341	1.3092	6.304
8.120	101.73	98.4334	1.3092	6.308
8.128	101.81	98.4328	1.3092	6.312
8.137	101.90	98.4321	1.3091	6.316
8.145	101.99	98.4315	1.3091	6.320
8.153	102.07	98.4308	1.3091	6.324
8.162	102.16	98.4301	1.3091	6.328
8.170	102.24	98.4294	1.3091	6.332
8.178	102.33	98.4288	1.3091	6.336
8.187	102.41	98.4282	1.3091	6.340
8.195	102.50	98.4276	1.3091	6.344
8.203	102.59	98.4270	1.3091	6.347
8.212	102.67	98.4264	1.3091	6.351
8.220	102.76	98.4257	1.3091	6.356
8.228	102.84	98.4251	1.3091	6.359
8.237	102.93	98.4244	1.3090	6.363
8.245	103.01	98.4237	1.3090	6.366
8.253	103.10	98.4231	1.3090	6.370
8.262	103.19	98.4223	1.3090	6.374
8.270	103.27	98.4215	1.3090	6.377
8.278	103.36	98.4207	1.3090	6.381
8.287	103.44	98.4200	1.3090	6.385
8.295	103.53	98.4193	1.3090	6.389
8.303	103.61	98.4186	1.3090	6.393
8.312	103.70	98.4179	1.3090	6.396
8.320	103.79	98.4171	1.3089	6.401
8.328	103.87	98.4164	1.3089	6.405
8.337	103.96	98.4157	1.3089	6.409
8.345	104.04	98.4150	1.3089	6.413
8.353	104.13	98.4143	1.3089	6.417
8.362	104.21	98.4136	1.3089	6.420
8.370	104.30	98.4129	1.3089	6.423
8.378	104.39	98.4122	1.3089	6.426
8.387	104.47	98.4114	1.3089	6.428
8.395	104.56	98.4106	1.3089	6.430
8.403	104.64	98.4098	1.3089	6.433
8.412	104.73	98.4091	1.3088	6.435
8.420	104.81	98.4084	1.3088	6.437
8.428	104.90	98.4076	1.3088	6.440
8.437	104.98	98.4069	1.3088	6.442
8.445	105.07	98.4061	1.3088	6.445
8.453	105.16	98.4054	1.3088	6.449
8.462	105.24	98.4046	1.3088	6.452
8.470	105.33	98.4039	1.3088	6.455
8.478	105.41	98.4033	1.3088	6.458
8.487	105.50	98.4026	1.3088	6.460
8.495	105.58	98.4019	1.3087	6.462
8.503	105.67	98.4012	1.3087	6.464
8.512	105.75	98.4006	1.3087	6.466
8.520	105.84	98.3999	1.3087	6.468
8.528	105.93	98.3992	1.3087	6.469
8.537	106.01	98.3986	1.3087	6.471
8.545	106.10	98.3979	1.3087	6.473
8.553	106.18	98.3972	1.3087	6.475
8.562	106.27	98.3965	1.3087	6.477
8.570	106.35	98.3958	1.3087	6.479

[step]
Isothermal 30.0 min
Time	Temperature	Weight	Weight	Heat Flow
min	°C	%	mg	mW
8.578	106.44	98.3951	1.3087	6.482
8.603	106.70	98.3930	1.3086	6.491
8.628	106.95	98.3910	1.3086	6.500
8.653	107.21	98.3890	1.3086	6.509
8.678	107.46	98.3870	1.3085	6.518
8.703	107.72	98.3850	1.3085	6.527
8.728	107.97	98.3829	1.3085	6.544
8.753	108.21	98.3808	1.3085	6.566
8.778	108.46	98.3786	1.3084	6.594
8.803	108.70	98.3765	1.3084	6.631
8.828	108.94	98.3744	1.3084	6.674
8.853	109.17	98.3726	1.3084	6.723
8.878	109.40	98.3708	1.3083	6.775
8.903	109.63	98.3689	1.3083	6.828
8.928	109.85	98.3669	1.3083	6.884
8.953	110.06	98.3647	1.3082	6.949
8.978	110.27	98.3626	1.3082	7.018
9.003	110.47	98.3607	1.3082	7.093
9.028	110.67	98.3588	1.3082	7.173
9.053	110.86	98.3571	1.3081	7.255
9.078	111.05	98.3554	1.3081	7.345
9.103	111.22	98.3536	1.3081	7.441
9.128	111.40	98.3515	1.3081	7.539
9.153	111.56	98.3492	1.3080	7.643
9.178	111.72	98.3468	1.3080	7.747
9.203	111.88	98.3443	1.3080	7.853
9.228	112.02	98.3422	1.3080	7.962
9.253	112.16	98.3404	1.3079	8.075
9.278	112.30	98.3390	1.3079	8.193
9.303	112.42	98.3376	1.3079	8.314
9.328	112.54	98.3364	1.3079	8.437
9.353	112.66	98.3351	1.3079	8.560
9.378	112.76	98.3337	1.3078	8.688
9.403	112.86	98.3319	1.3078	8.817
9.428	112.95	98.3298	1.3078	8.951
9.453	113.03	98.3276	1.3078	9.087
9.478	113.11	98.3254	1.3077	9.222
9.503	113.18	98.3232	1.3077	9.357
9.528	113.24	98.3210	1.3077	9.491
9.553	113.30	98.3186	1.3076	9.625
9.578	113.35	98.3163	1.3076	9.759
9.603	113.40	98.3141	1.3076	9.892
9.628	113.44	98.3121	1.3076	10.024
9.653	113.47	98.3102	1.3075	10.153
9.678	113.50	98.3081	1.3075	10.280
9.703	113.53	98.3061	1.3075	10.404
9.728	113.55	98.3040	1.3074	10.525
9.753	113.56	98.3020	1.3074	10.646
9.778	113.57	98.2999	1.3074	10.762
9.803	113.58	98.2980	1.3074	10.877
9.828	113.58	98.2960	1.3073	10.989
9.853	113.58	98.2942	1.3073	11.099
9.878	113.57	98.2922	1.3073	11.209
9.903	113.56	98.2901	1.3073	11.312
9.928	113.55	98.2881	1.3072	11.416
9.953	113.53	98.2860	1.3072	11.514
9.978	113.51	98.2841	1.3072	11.610
10.003	113.49	98.2821	1.3072	11.703
10.028	113.46	98.2800	1.3071	11.790
10.053	113.43	98.2778	1.3071	11.873
10.078	113.40	98.2755	1.3071	11.952
10.103	113.37	98.2731	1.3070	12.024
10.128	113.34	98.2709	1.3070	12.091
10.153	113.31	98.2687	1.3070	12.156
10.178	113.28	98.2667	1.3069	12.212
10.203	113.24	98.2652	1.3069	12.264
10.228	113.20	98.2640	1.3069	12.313
10.253	113.17	98.2631	1.3069	12.360
10.278	113.13	98.2621	1.3069	12.406
10.303	113.09	98.2609	1.3069	12.446
10.328	113.06	98.2597	1.3069	12.480
10.353	113.02	98.2588	1.3068	12.512
10.378	112.98	98.2580	1.3068	12.542
10.403	112.94	98.2574	1.3068	12.569
10.428	112.91	98.2566	1.3068	12.592
10.453	112.87	98.2559	1.3068	12.616
10.478	112.83	98.2550	1.3068	12.637
10.503	112.80	98.2542	1.3068	12.656
10.528	112.76	98.2534	1.3068	12.672
10.553	112.72	98.2527	1.3068	12.685
10.578	112.69	98.2521	1.3068	12.696
10.603	112.66	98.2514	1.3067	12.707
10.628	112.62	98.2507	1.3067	12.717
10.653	112.59	98.2499	1.3067	12.726
10.678	112.56	98.2490	1.3067	12.733
10.703	112.52	98.2482	1.3067	12.737
10.728	112.49	98.2475	1.3067	12.740
10.753	112.46	98.2469	1.3067	12.743
10.778	112.44	98.2463	1.3067	12.746
10.803	112.41	98.2456	1.3067	12.747
10.828	112.38	98.2450	1.3067	12.747
10.853	112.35	98.2444	1.3067	12.746
10.878	112.33	98.2438	1.3066	12.744
10.903	112.31	98.2434	1.3066	12.740
10.928	112.28	98.2431	1.3066	12.736
10.953	112.26	98.2430	1.3066	12.729
10.978	112.24	98.2430	1.3066	12.724
11.003	112.22	98.2430	1.3066	12.717
11.028	112.20	98.2426	1.3066	12.709
11.053	112.19	98.2420	1.3066	12.699
11.078	112.17	98.2415	1.3066	12.688
11.103	112.16	98.2413	1.3066	12.673
11.128	112.14	98.2412	1.3066	12.658
11.153	112.13	98.2410	1.3066	12.640
11.178	112.12	98.2406	1.3066	12.622
11.203	112.11	98.2400	1.3066	12.605
11.228	112.10	98.2393	1.3066	12.587
11.253	112.10	98.2386	1.3066	12.570
11.278	112.09	98.2380	1.3066	12.553
11.303	112.09	98.2375	1.3066	12.536
11.328	112.08	98.2371	1.3066	12.519
11.353	112.08	98.2366	1.3065	12.502
11.378	112.08	98.2362	1.3065	12.483
11.403	112.08	98.2359	1.3065	12.464
11.428	112.08	98.2354	1.3065	12.445
11.453	112.08	98.2347	1.3065	12.428
11.478	112.08	98.2340	1.3065	12.411
11.503	112.08	98.2336	1.3065	12.397
11.528	112.09	98.2333	1.3065	12.379
11.553	112.09	98.2334	1.3065	12.360
11.578	112.10	98.2333	1.3065	12.339
11.603	112.11	98.2332	1.3065	12.321
11.628	112.11	98.2330	1.3065	12.306
[...]
47.270	920.88	2.4588	0.0327	-279.613
47.278	921.30	2.4557	0.0327	-276.837
47.287	921.71	2.4527	0.0326	-274.053
47.295	922.11	2.4498	0.0326	-271.263
47.303	922.49	2.4469	0.0325	-268.469
47.312	922.87	2.4441	0.0325	-265.673
47.320	923.23	2.4414	0.0325	-262.874
47.328	923.58	2.4387	0.0324	-260.076
47.337	923.92	2.4361	0.0324	-257.283
47.345	924.25	2.4335	0.0324	-254.491
47.353	924.57	2.4310	0.0323	-251.705
47.362	924.87	2.4285	0.0323	-248.927
47.370	925.17	2.4260	0.0323	-246.156
47.378	925.46	2.4236	0.0322	-243.394
47.387	925.74	2.4213	0.0322	-240.641
47.395	926.01	2.4191	0.0322	-237.901
47.403	926.27	2.4171	0.0321	-235.176
47.412	926.52	2.4151	0.0321	-232.464
47.420	926.76	2.4133	0.0321	-229.766
47.428	926.99	2.4116	0.0321	-227.084
47.437	927.22	2.4099	0.0321	-224.421
47.445	927.44	2.4084	0.0320	-221.774
47.453	927.65	2.4069	0.0320	-219.144
47.462	927.85	2.4055	0.0320	-216.532
47.470	928.05	2.4041	0.0320	-213.939
47.478	928.23	2.4026	0.0320	-211.365
47.487	928.41	2.4011	0.0319	-208.812
47.495	928.59	2.3996	0.0319	-206.280
47.503	928.76	2.3981	0.0319	-203.770
47.512	928.92	2.3967	0.0319	-201.281
47.520	929.08	2.3952	0.0319	-198.812
47.528	929.23	2.3939	0.0318	-196.366
47.537	929.37	2.3925	0.0318	-193.943
47.545	929.51	2.3912	0.0318	-191.543
47.553	929.64	2.3899	0.0318	-189.165
47.562	929.77	2.3887	0.0318	-186.813
47.570	929.90	2.3875	0.0318	-184.481
47.578	930.02	2.3862	0.0317	-182.174
47.587	930.13	2.3849	0.0317	-179.890
47.595	930.24	2.3836	0.0317	-177.629
47.603	930.35	2.3822	0.0317	-175.393
47.612	930.45	2.3808	0.0317	-173.183
47.620	930.55	2.3794	0.0316	-170.998
47.628	930.65	2.3780	0.0316	-168.838
47.637	930.74	2.3765	0.0316	-166.702
47.645	930.83	2.3750	0.0316	-164.588
47.653	930.92	2.3736	0.0316	-162.500
47.662	931.00	2.3722	0.0316	-160.437
47.670	931.08	2.3710	0.0315	-158.399
47.678	931.16	2.3698	0.0315	-156.388
47.687	931.24	2.3688	0.0315	-154.401
47.695	931.31	2.3678	0.0315	-152.436
47.703	931.38	2.3668	0.0315	-150.497
47.712	931.45	2.3660	0.0315	-148.581
47.720	931.52	2.3653	0.0315	-146.689
47.728	931.58	2.3647	0.0315	-144.822
47.737	931.65	2.3641	0.0314	-142.979
47.745	931.71	2.3636	0.0314	-141.160
47.753	931.77	2.3631	0.0314	-139.364
47.762	931.82	2.3627	0.0314	-137.591
47.770	931.88	2.3623	0.0314	-135.842
47.778	931.94	2.3620	0.0314	-134.115
47.787	931.99	2.3617	0.0314	-132.410
47.795	932.04	2.3614	0.0314	-130.727
47.803	932.10	2.3613	0.0314	-129.064
47.812	932.15	2.3611	0.0314	-127.425
47.820	932.20	2.3611	0.0314	-125.808
47.828	932.25	2.3610	0.0314	-124.209
47.837	932.30	2.3610	0.0314	-122.633
47.845	932.35	2.3611	0.0314	-121.076
47.853	932.39	2.3612	0.0314	-119.539
47.862	932.44	2.3614	0.0314	-118.023
47.870	932.49	2.3616	0.0314	-116.526
47.878	932.53	2.3618	0.0314	-115.049
47.887	932.58	2.3621	0.0314	-113.593
47.895	932.62	2.3623	0.0314	-112.153
47.903	932.67	2.3626	0.0314	-110.730
47.912	932.71	2.3629	0.0314	-109.327
47.920	932.76	2.3633	0.0314	-107.943
47.928	932.80	2.3637	0.0314	-106.574
47.937	932.85	2.3642	0.0314	-105.223
47.945	932.89	2.3647	0.0314	-103.888
47.953	932.94	2.3652	0.0315	-102.570
47.962	932.98	2.3657	0.0315	-101.271
47.970	933.02	2.3663	0.0315	-99.988
47.978	933.07	2.3669	0.0315	-98.720
47.987	933.11	2.3676	0.0315	-97.466
47.995	933.16	2.3683	0.0315	-96.230
48.003	933.20	2.3690	0.0315	-95.005
48.012	933.25	2.3697	0.0315	-93.795
48.020	933.29	2.3704	0.0315	-92.600
48.028	933.34	2.3711	0.0315	-91.420
48.037	933.38	2.3718	0.0315	-90.252
48.045	933.43	2.3725	0.0316	-89.096
48.053	933.47	2.3733	0.0316	-87.954
48.062	933.52	2.3740	0.0316	-86.826
48.070	933.56	2.3748	0.0316	-85.713
48.078	933.61	2.3755	0.0316	-84.608
48.087	933.66	2.3763	0.0316	-83.515
48.095	933.70	2.3770	0.0316	-82.434
48.103	933.75	2.3777	0.0316	-81.364
48.112	933.80	2.3785	0.0316	-80.303
48.120	933.84	2.3793	0.0316	-79.253
48.128	933.89	2.3801	0.0317	-78.213
48.137	933.94	2.3809	0.0317	-77.181
48.145	933.99	2.3818	0.0317	-76.162
48.153	934.03	2.3827	0.0317	-75.150
48.162	934.08	2.3835	0.0317	-74.152
48.170	934.13	2.3844	0.0317	-73.166
48.178	934.18	2.3853	0.0317	-72.186
48.187	934.23	2.3862	0.0317	-71.216
48.195	934.28	2.3872	0.0317	-70.256
48.203	934.33	2.3881	0.0318	-69.305
48.212	934.38	2.3891	0.0318	-68.363
48.220	934.43	2.3900	0.0318	-67.427
48.228	934.48	2.3909	0.0318	-66.500
48.237	934.53	2.3918	0.0318	-65.583
48.245	934.58	2.3928	0.0318	-64.670
48.253	934.63	2.3938	0.0318	-63.762
48.262	934.68	2.3948	0.0319	-62.867
48.270	934.74	2.3958	0.0319	-61.976
48.278	934.79	2.3968	0.0319	-61.092
48.287	934.84	2.3979	0.0319	-60.214
48.295	934.89	2.3989	0.0319	-59.344
48.303	934.94	2.3999	0.0319	-58.480
48.312	935.00	2.4010	0.0319	-57.622
48.320	935.05	2.4020	0.0319	-56.768
48.328	935.10	2.4030	0.0320	-55.924
48.337	935.16	2.4040	0.0320	-55.084
48.345	935.21	2.4049	0.0320	-54.249
48.353	935.26	2.4058	0.0320	-53.422
48.362	935.32	2.4067	0.0320	-52.599
48.370	935.37	2.4076	0.0320	-51.781
48.378	935.42	2.4085	0.0320	-50.968
48.387	935.48	2.4094	0.0320	-50.160
48.395	935.53	2.4103	0.0321	-49.358
48.403	935.58	2.4112	0.0321	-48.562
48.412	935.64	2.4120	0.0321	-47.767
48.420	935.69	2.4129	0.0321	-46.982
48.428	935.75	2.4139	0.0321	-46.199
48.437	935.80	2.4148	0.0321	-45.421
48.445	935.85	2.4157	0.0321	-44.650
48.453	935.91	2.4166	0.0321	-43.883
48.462	935.96	2.4175	0.0322	-43.120
48.470	936.02	2.4185	0.0322	-42.360
48.478	936.07	2.4194	0.0322	-41.603
48.487	936.12	2.4203	0.0322	-40.852
48.495	936.18	2.4212	0.0322	-40.107
48.503	936.23	2.4221	0.0322	-39.364
48.512	936.29	2.4230	0.0322	-38.625
48.520	936.34	2.4240	0.0322	-37.889
48.528	936.39	2.4249	0.0323	-37.157
48.537	936.45	2.4259	0.0323	-36.429
48.545	936.50	2.4269	0.0323	-35.705
48.553	936.55	2.4279	0.0323	-34.985
48.562	936.61	2.4288	0.0323	-34.268
48.570	936.66	2.4298	0.0323	-33.555
48.578	936.71	2.4308	0.0323	-32.843
48.587	936.77	2.4318	0.0323	-32.135
48.595	936.82	2.4328	0.0324	-31.430
48.603	936.87	2.4337	0.0324	-30.727
48.612	936.93	2.4347	0.0324	-30.028
48.620	936.98	2.4356	0.0324	-29.333
48.628	937.03	2.4365	0.0324	-28.642
48.637	937.09	2.4374	0.0324	-27.953
48.645	937.14	2.4383	0.0324	-27.268
48.653	937.19	2.4393	0.0324	-26.586
48.662	937.24	2.4402	0.0325	-25.907
48.670	937.29	2.4411	0.0325	-25.234
48.678	937.35	2.4421	0.0325	-24.565
48.687	937.40	2.4430	0.0325	-23.899
48.695	937.45	2.4440	0.0325	-23.235
48.703	937.50	2.4450	0.0325	-22.572
48.712	937.55	2.4459	0.0325	-21.916
48.720	937.60	2.4468	0.0325	-21.261
48.728	937.65	2.4477	0.0326	-20.612
48.737	937.70	2.4485	0.0326	-19.963
48.745	937.75	2.4494	0.0326	-19.319
48.753	937.80	2.4502	0.0326	-18.674
48.762	937.85	2.4511	0.0326	-18.032
48.770	937.90	2.4519	0.0326	-17.395
48.778	937.95	2.4528	0.0326	-16.761
48.787	938.00	2.4536	0.0326	-16.130
48.795	938.05	2.4545	0.0326	-15.501
48.803	938.10	2.4553	0.0327	-14.876
48.812	938.15	2.4562	0.0327	-14.253
48.820	938.20	2.4570	0.0327	-13.633
48.828	938.25	2.4578	0.0327	-13.015
48.837	938.29	2.4586	0.0327	-12.401
48.845	938.34	2.4593	0.0327	-11.791
48.853	938.39	2.4601	0.0327	-11.184
48.862	938.44	2.4608	0.0327	-10.580
48.870	938.49	2.4616	0.0327	-9.979
48.878	938.53	2.4624	0.0327	-9.378
48.887	938.58	2.4631	0.0328	-8.782
48.895	938.63	2.4638	0.0328	-8.187
48.903	938.67	2.4645	0.0328	-7.597
48.912	938.72	2.4653	0.0328	-7.010
48.920	938.76	2.4661	0.0328	-6.427
48.928	938.81	2.4669	0.0328	-5.846
48.937	938.86	2.4676	0.0328	-5.268
48.945	938.90	2.4684	0.0328	-4.692
48.953	938.95	2.4691	0.0328	-4.119
48.962	938.99	2.4698	0.0328	-3.550
48.970	939.04	2.4706	0.0329	-2.983
48.978	939.08	2.4714	0.0329	-2.419
48.987	939.12	2.4721	0.0329	-1.857
48.995	939.17	2.4729	0.0329	-1.299
49.003	939.21	2.4736	0.0329	-0.741
49.012	939.26	2.4744	0.0329	-0.187
49.020	939.30	2.4751	0.0329	0.366
49.028	939.34	2.4759	0.0329	0.914
49.037	939.39	2.4766	0.0329	1.463
49.045	939.43	2.4775	0.0330	2.005
49.053	939.47	2.4783	0.0330	2.544
49.062	939.51	2.4790	0.0330	3.082
49.070	939.56	2.4798	0.0330	3.615
49.078	939.60	2.4805	0.0330	4.148
49.087	939.64	2.4812	0.0330	4.677
49.095	939.68	2.4820	0.0330	5.204
49.103	939.72	2.4827	0.0330	5.728
49.112	939.76	2.4833	0.0330	6.249
49.120	939.80	2.4839	0.0330	6.766
49.128	939.84	2.4845	0.0330	7.283
49.137	939.89	2.4851	0.0331	7.798
49.145	939.93	2.4857	0.0331	8.310
49.153	939.97	2.4862	0.0331	8.820
49.162	940.01	2.4868	0.0331	9.326
49.170	940.05	2.4874	0.0331	9.830
49.178	940.08	2.4880	0.0331	10.332
49.187	940.12	2.4886	0.0331	10.831
49.195	940.16	2.4892	0.0331	11.326
49.203	940.20	2.4897	0.0331	11.819
49.212	940.24	2.4903	0.0331	12.308
49.220	940.28	2.4909	0.0331	12.796
49.228	940.32	2.4915	0.0331	13.279
49.237	940.36	2.4921	0.0331	13.760
49.245	940.39	2.4927	0.0332	14.239
49.253	940.43	2.4932	0.0332	14.717
49.262	940.47	2.4937	0.0332	15.190
49.270	940.51	2.4942	0.0332	15.661
49.278	940.54	2.4947	0.0332	16.131
49.287	940.58	2.4952	0.0332	16.600
49.295	940.62	2.4957	0.0332	17.067
49.303	940.65	2.4962	0.0332	17.530
49.312	940.69	2.4966	0.0332	17.990
49.320	940.72	2.4971	0.0332	18.448
49.328	940.76	2.4976	0.0332	18.902
49.337	940.80	2.4981	0.0332	19.352
49.345	940.83	2.4987	0.0332	19.801
49.353	940.87	2.4992	0.0332	20.247
49.362	940.90	2.4997	0.0332	20.689
49.370	940.94	2.5003	0.0333	21.129
49.378	940.97	2.5009	0.0333	21.565
49.387	941.01	2.5015	0.0333	21.998
49.395	941.04	2.5020	0.0333	22.431
49.403	941.08	2.5026	0.0333	22.860
49.412	941.11	2.5031	0.0333	23.286
49.420	941.15	2.5036	0.0333	23.712
49.428	941.18	2.5041	0.0333	24.135
49.437	941.21	2.5047	0.0333	24.557
49.445	941.25	2.5052	0.0333	24.975
49.453	941.28	2.5056	0.0333	25.390
49.462	941.31	2.5061	0.0333	25.802
49.470	941.35	2.5065	0.0333	26.213
49.478	941.38	2.5069	0.0333	26.621
49.487	941.41	2.5072	0.0333	27.027
49.495	941.45	2.5075	0.0333	27.433
49.503	941.48	2.5078	0.0334	27.837
49.512	941.51	2.5082	0.0334	28.235
49.520	941.54	2.5085	0.0334	28.633
49.528	941.57	2.5087	0.0334	29.030
49.537	941.61	2.5090	0.0334	29.426
49.545	941.64	2.5093	0.0334	29.819
49.553	941.67	2.5096	0.0334	30.210
49.562	941.70	2.5099	0.0334	30.599
49.570	941.73	2.5102	0.0334	30.985
49.578	941.76	2.5105	0.0334	31.368
49.587	941.79	2.5108	0.0334	31.748
49.595	941.83	2.5111	0.0334	32.127
49.603	941.86	2.5114	0.0334	32.503
49.612	941.89	2.5117	0.0334	32.874
49.620	941.92	2.5120	0.0334	33.244
49.628	941.95	2.5124	0.0334	33.613
49.637	941.98	2.5127	0.0334	33.979
49.645	942.01	2.5131	0.0334	34.341
49.653	942.04	2.5135	0.0334	34.701
49.662	942.07	2.5138	0.0334	35.061
49.670	942.10	2.5142	0.0334	35.416
49.678	942.13	2.5146	0.0334	35.770
49.687	942.16	2.5149	0.0334	36.124
49.695	942.19	2.5152	0.0335	36.475
49.703	942.22	2.5155	0.0335	36.824
49.712	942.25	2.5157	0.0335	37.172
49.720	942.27	2.5159	0.0335	37.516
49.728	942.30	2.5162	0.0335	37.861
49.737	942.33	2.5164	0.0335	38.204
49.745	942.36	2.5167	0.0335	38.543
49.753	942.39	2.5169	0.0335	38.882
49.762	942.42	2.5171	0.0335	39.218
49.770	942.45	2.5173	0.0335	39.551
49.778	942.47	2.5176	0.0335	39.882
49.787	942.50	2.5179	0.0335	40.211
49.795	942.53	2.5182	0.0335	40.538
49.803	942.56	2.5184	0.0335	40.867
49.812	942.58	2.5187	0.0335	41.193
49.820	942.61	2.5190	0.0335	41.517
49.828	942.64	2.5192	0.0335	41.838
49.837	942.67	2.5195	0.0335	42.158
49.845	942.69	2.5198	0.0335	42.477
49.853	942.72	2.5201	0.0335	42.795
49.862	942.75	2.5204	0.0335	43.110
49.870	942.77	2.5206	0.0335	43.424
49.878	942.80	2.5209	0.0335	43.738
49.887	942.83	2.5212	0.0335	44.048
49.895	942.85	2.5214	0.0335	44.357
49.903	942.88	2.5215	0.0335	44.664
49.912	942.91	2.5217	0.0335	44.970
49.920	942.93	2.5219	0.0335	45.272
49.928	942.96	2.5220	0.0335	45.572
49.937	942.98	2.5222	0.0335	45.872
49.945	943.01	2.5224	0.0335	46.169
49.953	943.04	2.5225	0.0335	46.467
49.962	943.06	2.5227	0.0336	46.761
49.970	943.09	2.5228	0.0336	47.050
49.978	943.11	2.5230	0.0336	47.340
49.987	943.14	2.5233	0.0336	47.626
49.995	943.16	2.5235	0.0336	47.912
50.003	943.19	2.5238	0.0336	48.195
50.012	943.21	2.5241	0.0336	48.476
50.020	943.24	2.5243	0.0336	48.755
50.028	943.26	2.5246	0.0336	49.033
50.037	943.29	2.5248	0.0336	49.307
50.045	943.31	2.5250	0.0336	49.580
50.053	943.33	2.5253	0.0336	49.853
50.062	943.36	2.5254	0.0336	50.122
50.070	943.38	2.5256	0.0336	50.389
50.078	943.41	2.5257	0.0336	50.656
50.087	943.43	2.5259	0.0336	50.923
50.095	943.45	2.5261	0.0336	51.189
50.103	943.48	2.5262	0.0336	51.454
50.112	943.50	2.5264	0.0336	51.717
50.120	943.52	2.5266	0.0336	51.976
50.128	943.55	2.5268	0.0336	52.237
50.137	943.57	2.5270	0.0336	52.496
50.145	943.59	2.5272	0.0336	52.756
50.153	943.62	2.5274	0.0336	53.015
50.162	943.64	2.5276	0.0336	53.270
50.170	943.66	2.5277	0.0336	53.523
50.178	943.69	2.5279	0.0336	53.776
50.187	943.71	2.5280	0.0336	54.027
50.195	943.73	2.5280	0.0336	54.278
50.203	943.76	2.5281	0.0336	54.529
50.212	943.78	2.5281	0.0336	54.779
50.220	943.80	2.5282	0.0336	55.024
50.228	943.82	2.5284	0.0336	55.266
50.237	943.85	2.5285	0.0336	55.509
50.245	943.87	2.5286	0.0336	55.750
50.253	943.89	2.5287	0.0336	55.990
50.262	943.91	2.5287	0.0336	56.226
50.270	943.93	2.5288	0.0336	56.462
50.278	943.96	2.5289	0.0336	56.695
50.287	943.98	2.5290	0.0336	56.927
50.295	944.00	2.5290	0.0336	57.157
50.303	944.02	2.5291	0.0336	57.389
50.312	944.04	2.5291	0.0336	57.618
50.320	944.06	2.5291	0.0336	57.847
50.328	944.09	2.5292	0.0336	58.076
50.337	944.11	2.5292	0.0336	58.301
50.345	944.13	2.5293	0.0336	58.527
50.353	944.15	2.5294	0.0336	58.750
50.362	944.17	2.5294	0.0336	58.971
50.370	944.19	2.5294	0.0336	59.190
50.378	944.21	2.5294	0.0336	59.408
50.387	944.23	2.5294	0.0336	59.625
50.395	944.25	2.5294	0.0336	59.840
50.403	944.27	2.5295	0.0336	60.054
50.412	944.29	2.5295	0.0336	60.267
50.420	944.31	2.5295	0.0336	60.480
50.428	944.33	2.5294	0.0336	60.691
50.437	944.35	2.5294	0.0336	60.902
50.445	944.37	2.5294	0.0336	61.112
50.453	944.39	2.5294	0.0336	61.322
50.462	944.41	2.5294	0.0336	61.532
50.470	944.43	2.5294	0.0336	61.739
50.478	944.45	2.5294	0.0336	61.945
50.487	944.47	2.5294	0.0336	62.149
50.495	944.49	2.5294	0.0336	62.351
50.503	944.51	2.5294	0.0336	62.551
50.512	944.53	2.5295	0.0336	62.750
50.520	944.55	2.5296	0.0336	62.947
50.528	944.57	2.5297	0.0336	63.145
50.537	944.59	2.5298	0.0336	63.339
50.545	944.61	2.5299	0.0336	63.532
50.553	944.63	2.5300	0.0336	63.726
50.562	944.65	2.5301	0.0337	63.919
50.570	944.67	2.5302	0.0337	64.109
50.578	944.69	2.5303	0.0337	64.299
50.587	944.70	2.5304	0.0337	64.488
50.595	944.72	2.5304	0.0337	64.678
50.603	944.74	2.5304	0.0337	64.866
50.612	944.76	2.5305	0.0337	65.051
50.620	944.78	2.5305	0.0337	65.235
50.628	944.80	2.5306	0.0337	65.419
50.637	944.81	2.5306	0.0337	65.599
50.645	944.83	2.5307	0.0337	65.780
50.653	944.85	2.5307	0.0337	65.961
50.662	944.87	2.5309	0.0337	66.141
50.670	944.89	2.5310	0.0337	66.321
50.678	944.91	2.5310	0.0337	66.498
50.687	944.92	2.5311	0.0337	66.674
50.695	944.94	2.5312	0.0337	66.850
50.703	944.96	2.5313	0.0337	67.026
50.712	944.98	2.5314	0.0337	67.201
50.720	944.99	2.5315	0.0337	67.375
50.728	945.01	2.5316	0.0337	67.548
50.737	945.03	2.5317	0.0337	67.718
50.745	945.05	2.5317	0.0337	67.887
50.753	945.06	2.5318	0.0337	68.054
50.762	945.08	2.5318	0.0337	68.222
50.770	945.10	2.5319	0.0337	68.389
50.778	945.12	2.5319	0.0337	68.554
50.787	945.13	2.5319	0.0337	68.720
50.795	945.15	2.5319	0.0337	68.882
50.803	945.17	2.5320	0.0337	69.042
50.812	945.18	2.5320	0.0337	69.202
50.820	945.20	2.5321	0.0337	69.362
50.828	945.22	2.5321	0.0337	69.521
50.837	945.23	2.5322	0.0337	69.679
50.845	945.25	2.5323	0.0337	69.838
50.853	945.27	2.5325	0.0337	69.994
50.862	945.28	2.5326	0.0337	70.150
50.870	945.30	2.5327	0.0337	70.303
50.878	945.32	2.5327	0.0337	70.458
50.887	945.33	2.5328	0.0337	70.613
50.895	945.35	2.5328	0.0337	70.769
50.903	945.36	2.5328	0.0337	70.924
50.912	945.38	2.5329	0.0337	71.076
50.920	945.40	2.5329	0.0337	71.227
50.928	945.41	2.5329	0.0337	71.375
50.937	945.43	2.5330	0.0337	71.524
50.945	945.44	2.5330	0.0337	71.672
50.953	945.46	2.5331	0.0337	71.820
50.962	945.48	2.5331	0.0337	71.965
50.970	945.49	2.5331	0.0337	72.109
50.978	945.51	2.5331	0.0337	72.252
50.987	945.52	2.5330	0.0337	72.394
50.995	945.54	2.5330	0.0337	72.536
51.003	945.55	2.5329	0.0337	72.680
51.012	945.57	2.5328	0.0337	72.821
51.020	945.58	2.5327	0.0337	72.961
51.028	945.60	2.5326	0.0337	73.101
51.037	945.61	2.5325	0.0337	73.240
51.045	945.63	2.5324	0.0337	73.380
51.053	945.65	2.5324	0.0337	73.517
51.062	945.66	2.5324	0.0337	73.653
51.070	945.67	2.5324	0.0337	73.789
51.078	945.69	2.5324	0.0337	73.923
51.087	945.70	2.5324	0.0337	74.056
51.095	945.72	2.5325	0.0337	74.191
51.103	945.73	2.5326	0.0337	74.322
51.112	945.75	2.5327	0.0337	74.453
51.120	945.76	2.5327	0.0337	74.584
51.128	945.78	2.5328	0.0337	74.712
51.137	945.79	2.5328	0.0337	74.840
51.145	945.81	2.5329	0.0337	74.967
51.153	945.82	2.5329	0.0337	75.094
51.162	945.84	2.5329	0.0337	75.221
51.170	945.85	2.5329	0.0337	75.345
51.178	945.86	2.5330	0.0337	75.469
51.187	945.88	2.5330	0.0337	75.594
51.195	945.89	2.5330	0.0337	75.717
51.203	945.91	2.5329	0.0337	75.838
51.212	945.92	2.5329	0.0337	75.962
51.220	945.93	2.5329	0.0337	76.083
51.228	945.95	2.5328	0.0337	76.204
51.237	945.96	2.5327	0.0337	76.326
51.245	945.98	2.5327	0.0337	76.446
51.253	945.99	2.5326	0.0337	76.566
51.262	946.00	2.5324	0.0337	76.685
51.270	946.02	2.5323	0.0337	76.804
51.278	946.03	2.5322	0.0337	76.924
51.287	946.04	2.5321	0.0337	77.041
51.295	946.06	2.5320	0.0337	77.157
51.303	946.07	2.5319	0.0337	77.271
51.312	946.08	2.5318	0.0337	77.385
51.320	946.10	2.5318	0.0337	77.499
51.328	946.11	2.5317	0.0337	77.610
51.337	946.12	2.5317	0.0337	77.721
51.345	946.14	2.5317	0.0337	77.830
51.353	946.15	2.5318	0.0337	77.936
51.362	946.16	2.5318	0.0337	78.043
51.370	946.18	2.5319	0.0337	78.151
51.378	946.19	2.5320	0.0337	78.257
51.387	946.20	2.5320	0.0337	78.364
51.395	946.21	2.5321	0.0337	78.471
51.403	946.23	2.5322	0.0337	78.575
51.412	946.24	2.5322	0.0337	78.680
51.420	946.25	2.5323	0.0337	78.785
51.428	946.27	2.5323	0.0337	78.891
51.437	946.28	2.5322	0.0337	78.994
51.445	946.29	2.5322	0.0337	79.096
51.453	946.30	2.5321	0.0337	79.195
51.462	946.32	2.5320	0.0337	79.298
51.470	946.33	2.5319	0.0337	79.400
51.478	946.34	2.5318	0.0337	79.499
51.487	946.35	2.5317	0.0337	79.600
51.495	946.36	2.5316	0.0337	79.702
51.503	946.38	2.5315	0.0337	79.800
51.512	946.39	2.5315	0.0337	79.900
51.520	946.40	2.5315	0.0337	79.999
51.528	946.41	2.5315	0.0337	80.097
51.537	946.43	2.5316	0.0337	80.198
51.545	946.44	2.5316	0.0337	80.295
51.553	946.45	2.5316	0.0337	80.392
51.562	946.46	2.5316	0.0337	80.491
51.570	946.47	2.5316	0.0337	80.586
51.578	946.49	2.5317	0.0337	80.679
51.587	946.50	2.5317	0.0337	80.774
51.595	946.51	2.5317	0.0337	80.867
51.603	946.52	2.5317	0.0337	80.960
51.612	946.53	2.5317	0.0337	81.054
51.620	946.54	2.5316	0.0337	81.148
51.628	946.56	2.5316	0.0337	81.238
51.637	946.57	2.5316	0.0337	81.328
51.645	946.58	2.5316	0.0337	81.415
51.653	946.59	2.5316	0.0337	81.503
51.662	946.60	2.5316	0.0337	81.593
51.670	946.61	2.5316	0.0337	81.679
51.678	946.62	2.5315	0.0337	81.767
51.687	946.64	2.5314	0.0337	81.855
51.695	946.65	2.5314	0.0337	81.941
51.703	946.66	2.5313	0.0337	82.028
51.712	946.67	2.5312	0.0337	82.116
51.720	946.68	2.5311	0.0337	82.204
51.728	946.69	2.5310	0.0337	82.290
51.737	946.70	2.5310	0.0337	82.375
51.745	946.71	2.5309	0.0337	82.461
51.753	946.73	2.5308	0.0337	82.549
51.762	946.74	2.5308	0.0337	82.630
51.770	946.75	2.5307	0.0337	82.712
51.778	946.76	2.5306	0.0337	82.794
51.787	946.77	2.5306	0.0337	82.873
51.795	946.78	2.5305	0.0337	82.951
51.803	946.79	2.5304	0.0337	83.030
51.812	946.80	2.5303	0.0337	83.110
51.820	946.81	2.5302	0.0337	83.189
51.828	946.82	2.5301	0.0337	83.266
51.837	946.83	2.5300	0.0336	83.342
51.845	946.84	2.5299	0.0336	83.420
51.853	946.85	2.5299	0.0336	83.499
51.862	946.86	2.5298	0.0336	83.577
51.870	946.87	2.5297	0.0336	83.654
51.878	946.88	2.5296	0.0336	83.731
51.887	946.90	2.5295	0.0336	83.807
51.895	946.91	2.5294	0.0336	83.883
51.903	946.92	2.5292	0.0336	83.959
51.912	946.93	2.5291	0.0336	84.034
51.920	946.94	2.5289	0.0336	84.107
51.928	946.95	2.5288	0.0336	84.181
51.937		2.5287	0.0336
51.945		2.5285	0.0336
51.953		2.5284	0.0336
51.962		2.5283	0.0336
51.970		2.5281	0.0336