File: PSO Kinetics/data/softwood-10Kmin_1.txt
Filename	softwood-10Kmin_1
Instrument name	0650-0369 (192.168.1.2)
Operator	ca527
rundate	1/9/2023
Sample name	softwood-10Kmin_1
proceduresegments	Select Gas: Gas 1 ; Ramp 10.00 °C/min to 110.00 °C; Isothermal 30.0 min; Ramp 10.00 °C/min to 900.00 °C; Isothermal 30.0 min; Select Gas: Gas 2 ; Ramp 10.00 °C/min to 950.00 °C; Isothermal 10.0 min; Data Off ; Equilibrate 30.00 °C
[step]
Ramp 10.00 °C/min to 110.00 °C
Time	Temperature	Weight	Weight	Heat Flow
min	°C	%	mg	mW
0.003		100.0411	4.3204
0.012		100.0941	4.3227
0.020		100.1448	4.3249
0.028		100.1901	4.3269
0.037		100.2291	4.3286
0.045	22.37	100.2612	4.3299	-28.107
0.053	22.41	100.2856	4.3310	-28.050
0.062	22.45	100.3021	4.3317	-27.998
0.070	22.49	100.3106	4.3321	-27.949
0.078	22.53	100.3101	4.3321	-27.900
0.087	22.56	100.3026	4.3317	-27.852
0.095	22.60	100.2935	4.3313	-27.805
0.103	22.64	100.2841	4.3309	-27.758
0.112	22.68	100.2748	4.3305	-27.712
0.120	22.72	100.2659	4.3301	-27.667
0.128	22.75	100.2573	4.3298	-27.621
0.137	22.79	100.2492	4.3294	-27.574
0.145	22.83	100.2413	4.3291	-27.528
0.153	22.87	100.2337	4.3288	-27.481
0.162	22.90	100.2263	4.3284	-27.435
0.170	22.94	100.2191	4.3281	-27.390
0.178	22.98	100.2121	4.3278	-27.345
0.187	23.02	100.2053	4.3275	-27.301
0.195	23.05	100.1988	4.3272	-27.257
0.203	23.09	100.1924	4.3270	-27.213
0.212	23.12	100.1861	4.3267	-27.171
0.220	23.16	100.1801	4.3264	-27.129
0.228	23.20	100.1742	4.3262	-27.088
0.237	23.23	100.1684	4.3259	-27.046
0.245	23.27	100.1628	4.3257	-27.004
0.253	23.30	100.1573	4.3255	-26.963
0.262	23.34	100.1519	4.3252	-26.922
0.270	23.37	100.1467	4.3250	-26.882
0.278	23.41	100.1415	4.3248	-26.843
0.287	23.44	100.1365	4.3246	-26.804
0.295	23.48	100.1315	4.3243	-26.764
0.303	23.51	100.1266	4.3241	-26.725
0.312	23.55	100.1218	4.3239	-26.686
0.320	23.59	100.1170	4.3237	-26.649
0.328	23.62	100.1122	4.3235	-26.612
0.337	23.66	100.1076	4.3233	-26.575
0.345	23.69	100.1030	4.3231	-26.539
0.353	23.73	100.0984	4.3229	-26.503
0.362	23.76	100.0938	4.3227	-26.465
0.370	23.80	100.0893	4.3225	-26.428
0.378	23.83	100.0848	4.3223	-26.392
0.387	23.87	100.0804	4.3221	-26.357
0.395	23.90	100.0760	4.3220	-26.322
0.403	23.94	100.0717	4.3218	-26.286
0.412	23.97	100.0673	4.3216	-26.253
0.420	24.01	100.0630	4.3214	-26.219
0.428	24.04	100.0587	4.3212	-26.182
0.437	24.08	100.0544	4.3210	-26.147
0.445	24.11	100.0502	4.3208	-26.113
0.453	24.15	100.0459	4.3206	-26.080
0.462	24.18	100.0416	4.3205	-26.046
0.470	24.22	100.0372	4.3203	-26.014
0.478	24.26	100.0329	4.3201	-25.985
0.487	24.29	100.0285	4.3199	-25.955
0.495	24.33	100.0241	4.3197	-25.924
0.503	24.37	100.0196	4.3195	-25.893
0.512	24.41	100.0152	4.3193	-25.865
0.520	24.44	100.0107	4.3191	-25.837
0.528	24.48	100.0061	4.3189	-25.808
0.537	24.52	100.0015	4.3187	-25.779
0.545	24.56	99.9969	4.3185	-25.751
0.553	24.60	99.9923	4.3183	-25.722
0.562	24.64	99.9876	4.3181	-25.694
0.570	24.68	99.9830	4.3179	-25.666
0.578	24.72	99.9783	4.3177	-25.639
0.587	24.76	99.9736	4.3175	-25.611
0.595	24.80	99.9689	4.3173	-25.584
0.603	24.84	99.9642	4.3171	-25.559
0.612	24.88	99.9595	4.3169	-25.535
0.620	24.93	99.9548	4.3167	-25.511
0.628	24.97	99.9501	4.3165	-25.487
0.637	25.01	99.9455	4.3163	-25.464
0.645	25.05	99.9408	4.3161	-25.440
0.653	25.10	99.9362	4.3159	-25.417
0.662	25.14	99.9315	4.3157	-25.394
0.670	25.19	99.9269	4.3155	-25.373
0.678	25.23	99.9224	4.3153	-25.351
0.687	25.28	99.9179	4.3151	-25.328
0.695	25.32	99.9134	4.3149	-25.305
0.703	25.37	99.9089	4.3147	-25.282
0.712	25.41	99.9045	4.3145	-25.259
0.720	25.46	99.9002	4.3144	-25.236
0.728	25.51	99.8959	4.3142	-25.214
0.737	25.56	99.8917	4.3140	-25.192
0.745	25.60	99.8876	4.3138	-25.169
0.753	25.65	99.8835	4.3136	-25.148
0.762	25.70	99.8794	4.3135	-25.126
0.770	25.75	99.8754	4.3133	-25.104
0.778	25.80	99.8715	4.3131	-25.081
0.787	25.85	99.8676	4.3130	-25.058
0.795	25.90	99.8638	4.3128	-25.036
0.803	25.95	99.8601	4.3126	-25.012
0.812	26.00	99.8564	4.3125	-24.989
0.820	26.05	99.8528	4.3123	-24.965
0.828	26.11	99.8493	4.3122	-24.942
0.837	26.16	99.8459	4.3120	-24.918
0.845	26.21	99.8425	4.3119	-24.895
0.853	26.27	99.8391	4.3117	-24.872
0.862	26.32	99.8359	4.3116	-24.849
0.870	26.38	99.8327	4.3114	-24.825
0.878	26.43	99.8295	4.3113	-24.802
0.887	26.49	99.8264	4.3112	-24.778
0.895	26.54	99.8234	4.3110	-24.754
0.903	26.60	99.8204	4.3109	-24.730
0.912	26.65	99.8175	4.3108	-24.705
0.920	26.71	99.8146	4.3107	-24.680
0.928	26.77	99.8118	4.3105	-24.654
0.937	26.83	99.8091	4.3104	-24.628
0.945	26.88	99.8063	4.3103	-24.602
0.953	26.94	99.8037	4.3102	-24.576
0.962	27.00	99.8011	4.3101	-24.548
0.970	27.06	99.7985	4.3100	-24.520
0.978	27.12	99.7960	4.3099	-24.493
0.987	27.18	99.7935	4.3097	-24.465
0.995	27.24	99.7910	4.3096	-24.437
1.003	27.31	99.7886	4.3095	-24.408
1.012	27.37	99.7863	4.3094	-24.379
1.020	27.43	99.7839	4.3093	-24.348
1.028	27.49	99.7816	4.3092	-24.317
1.037	27.56	99.7793	4.3091	-24.285
1.045	27.62	99.7770	4.3090	-24.254
1.053	27.68	99.7748	4.3089	-24.221
1.062	27.75	99.7725	4.3088	-24.187
1.070	27.81	99.7703	4.3087	-24.153
1.078	27.88	99.7680	4.3086	-24.119
1.087	27.94	99.7658	4.3086	-24.084
1.095	28.01	99.7636	4.3085	-24.047
1.103	28.08	99.7614	4.3084	-24.011
1.112	28.15	99.7592	4.3083	-23.975
1.120	28.21	99.7571	4.3082	-23.939
1.128	28.28	99.7549	4.3081	-23.903
1.137	28.35	99.7527	4.3080	-23.866
1.145	28.42	99.7506	4.3079	-23.827
1.153	28.49	99.7484	4.3078	-23.788
1.162	28.56	99.7463	4.3077	-23.750
1.170	28.63	99.7442	4.3076	-23.710
1.178	28.70	99.7420	4.3075	-23.669
1.187	28.77	99.7399	4.3074	-23.628
1.195	28.84	99.7377	4.3073	-23.587
1.203	28.91	99.7356	4.3072	-23.545
1.212	28.99	99.7334	4.3072	-23.503
1.220	29.06	99.7312	4.3071	-23.460
1.228	29.13	99.7289	4.3070	-23.416
1.237	29.21	99.7267	4.3069	-23.373
1.245	29.28	99.7245	4.3068	-23.328
1.253	29.35	99.7222	4.3067	-23.284
1.262	29.43	99.7200	4.3066	-23.239
1.270	29.50	99.7177	4.3065	-23.194
1.278	29.58	99.7154	4.3064	-23.146
1.287	29.65	99.7131	4.3063	-23.098
1.295	29.73	99.7107	4.3062	-23.049
1.303	29.81	99.7084	4.3061	-23.000
1.312	29.88	99.7060	4.3060	-22.952
1.320	29.96	99.7036	4.3059	-22.901
1.328	30.04	99.7012	4.3058	-22.852
1.337	30.11	99.6988	4.3057	-22.801
1.345	30.19	99.6963	4.3056	-22.749
1.353	30.27	99.6939	4.3054	-22.696
1.362	30.35	99.6914	4.3053	-22.644
1.370	30.43	99.6889	4.3052	-22.590
1.378	30.51	99.6865	4.3051	-22.538
1.387	30.58	99.6839	4.3050	-22.484
1.395	30.66	99.6814	4.3049	-22.429
1.403	30.74	99.6789	4.3048	-22.375
1.412	30.83	99.6763	4.3047	-22.319
1.420	30.91	99.6737	4.3046	-22.263
1.428	30.99	99.6711	4.3045	-22.209
1.437	31.07	99.6684	4.3043	-22.154
1.445	31.15	99.6658	4.3042	-22.098
1.453	31.23	99.6631	4.3041	-22.043
1.462	31.32	99.6604	4.3040	-21.986
1.470	31.40	99.6577	4.3039	-21.928
1.478	31.48	99.6549	4.3038	-21.871
1.487	31.56	99.6521	4.3036	-21.813
1.495	31.65	99.6493	4.3035	-21.754
1.503	31.73	99.6465	4.3034	-21.694
1.512	31.81	99.6437	4.3033	-21.634
1.520	31.90	99.6409	4.3032	-21.574
1.528	31.98	99.6380	4.3030	-21.514
1.537	32.07	99.6352	4.3029	-21.453
1.545	32.15	99.6323	4.3028	-21.392
1.553	32.24	99.6294	4.3027	-21.330
1.562	32.32	99.6265	4.3025	-21.267
1.570	32.41	99.6236	4.3024	-21.204
1.578	32.49	99.6206	4.3023	-21.143
1.587	32.58	99.6177	4.3022	-21.080
1.595	32.67	99.6147	4.3020	-21.018
1.603	32.75	99.6117	4.3019	-20.953
1.612	32.84	99.6087	4.3018	-20.889
1.620	32.93	99.6057	4.3016	-20.824
1.628	33.01	99.6027	4.3015	-20.760
1.637	33.10	99.5996	4.3014	-20.695
1.645	33.19	99.5965	4.3012	-20.630
1.653	33.28	99.5934	4.3011	-20.564
1.662	33.37	99.5903	4.3010	-20.498
1.670	33.45	99.5872	4.3008	-20.432
1.678	33.54	99.5840	4.3007	-20.365
1.687	33.63	99.5809	4.3006	-20.297
1.695	33.72	99.5777	4.3004	-20.230
1.703	33.81	99.5745	4.3003	-20.163
1.712	33.90	99.5713	4.3002	-20.095
1.720	33.99	99.5680	4.3000	-20.026
1.728	34.08	99.5648	4.2999	-19.957
1.737	34.17	99.5615	4.2997	-19.889
1.745	34.26	99.5582	4.2996	-19.819
1.753	34.35	99.5548	4.2994	-19.750
1.762	34.44	99.5515	4.2993	-19.682
1.770	34.53	99.5481	4.2992	-19.613
1.778	34.62	99.5447	4.2990	-19.542
1.787	34.71	99.5413	4.2989	-19.471
1.795	34.80	99.5378	4.2987	-19.401
1.803	34.89	99.5344	4.2986	-19.332
1.812	34.98	99.5309	4.2984	-19.262
1.820	35.07	99.5275	4.2983	-19.193
1.828	35.17	99.5240	4.2981	-19.121
1.837	35.26	99.5205	4.2980	-19.050
1.845	35.35	99.5170	4.2978	-18.978
1.853	35.44	99.5135	4.2977	-18.908
1.862	35.53	99.5099	4.2975	-18.839
1.870	35.62	99.5064	4.2973	-18.769
1.878	35.72	99.5028	4.2972	-18.697
1.887	35.81	99.4992	4.2970	-18.625
1.895	35.90	99.4956	4.2969	-18.552
1.903	35.99	99.4920	4.2967	-18.479
1.912	36.09	99.4884	4.2966	-18.407
1.920	36.18	99.4847	4.2964	-18.335
1.928	36.27	99.4810	4.2963	-18.262
1.937	36.37	99.4773	4.2961	-18.187
1.945	36.46	99.4736	4.2959	-18.114
1.953	36.55	99.4699	4.2958	-18.040
1.962	36.64	99.4661	4.2956	-17.967
1.970	36.74	99.4624	4.2954	-17.894
1.978	36.83	99.4586	4.2953	-17.820
1.987	36.93	99.4547	4.2951	-17.747
1.995	37.02	99.4509	4.2950	-17.673
2.003	37.11	99.4471	4.2948	-17.599
2.012	37.21	99.4433	4.2946	-17.526
2.020	37.30	99.4394	4.2945	-17.452
2.028	37.39	99.4355	4.2943	-17.378
2.037	37.49	99.4316	4.2941	-17.303
2.045	37.58	99.4277	4.2940	-17.229
2.053	37.68	99.4238	4.2938	-17.155
2.062	37.77	99.4199	4.2936	-17.081
2.070	37.86	99.4160	4.2934	-17.006
2.078	37.96	99.4120	4.2933	-16.932
2.087	38.05	99.4080	4.2931	-16.858
2.095	38.14	99.4040	4.2929	-16.784
2.103	38.24	99.4000	4.2928	-16.709
2.112	38.33	99.3960	4.2926	-16.635
2.120	38.43	99.3920	4.2924	-16.561
2.128	38.52	99.3879	4.2922	-16.488
2.137	38.61	99.3839	4.2921	-16.414
2.145	38.71	99.3798	4.2919	-16.340
2.153	38.80	99.3757	4.2917	-16.266
2.162	38.90	99.3716	4.2915	-16.191
2.170	38.99	99.3675	4.2914	-16.116
2.178	39.08	99.3634	4.2912	-16.042
2.187	39.18	99.3593	4.2910	-15.967
2.195	39.27	99.3551	4.2908	-15.895
2.203	39.37	99.3509	4.2906	-15.822
2.212	39.46	99.3467	4.2905	-15.747
2.220	39.56	99.3424	4.2903	-15.674
2.228	39.65	99.3382	4.2901	-15.601
2.237	39.75	99.3339	4.2899	-15.528
2.245	39.84	99.3297	4.2897	-15.454
2.253	39.94	99.3254	4.2895	-15.381
2.262	40.03	99.3211	4.2893	-15.308
2.270	40.12	99.3168	4.2892	-15.234
2.278	40.22	99.3125	4.2890	-15.159
2.287	40.31	99.3082	4.2888	-15.084
2.295	40.41	99.3039	4.2886	-15.009
2.303	40.50	99.2995	4.2884	-14.934
2.312	40.60	99.2952	4.2882	-14.859
2.320	40.69	99.2908	4.2880	-14.785
2.328	40.79	99.2864	4.2878	-14.711
2.337	40.88	99.2820	4.2877	-14.637
2.345	40.98	99.2776	4.2875	-14.562
2.353	41.07	99.2731	4.2873	-14.490
2.362	41.17	99.2686	4.2871	-14.417
2.370	41.26	99.2641	4.2869	-14.345
2.378	41.35	99.2596	4.2867	-14.274
2.387	41.45	99.2551	4.2865	-14.203
2.395	41.54	99.2506	4.2863	-14.130
2.403	41.63	99.2460	4.2861	-14.058
2.412	41.73	99.2414	4.2859	-13.986
2.420	41.82	99.2369	4.2857	-13.916
2.428	41.92	99.2323	4.2855	-13.845
2.437	42.01	99.2277	4.2853	-13.773
2.445	42.10	99.2231	4.2851	-13.701
2.453	42.20	99.2185	4.2849	-13.628
2.462	42.29	99.2139	4.2847	-13.555
2.470	42.39	99.2093	4.2845	-13.483
2.478	42.48	99.2046	4.2843	-13.411
2.487	42.57	99.2000	4.2841	-13.339
2.495	42.67	99.1953	4.2839	-13.268
2.503	42.76	99.1906	4.2837	-13.195
2.512	42.85	99.1859	4.2835	-13.123
2.520	42.95	99.1812	4.2833	-13.051
2.528	43.04	99.1764	4.2831	-12.980
2.537	43.14	99.1717	4.2829	-12.909
2.545	43.23	99.1669	4.2827	-12.838
2.553	43.32	99.1620	4.2825	-12.767
2.562	43.42	99.1572	4.2823	-12.697
2.570	43.51	99.1524	4.2821	-12.628
2.578	43.60	99.1475	4.2818	-12.558
2.587	43.70	99.1426	4.2816	-12.490
2.595	43.79	99.1377	4.2814	-12.419
2.603	43.88	99.1328	4.2812	-12.349
2.612	43.98	99.1278	4.2810	-12.280
2.620	44.07	99.1228	4.2808	-12.210
2.628	44.16	99.1179	4.2806	-12.140
2.637	44.25	99.1129	4.2804	-12.071
2.645	44.35	99.1079	4.2801	-12.001
2.653	44.44	99.1028	4.2799	-11.931
2.662	44.53	99.0978	4.2797	-11.861
2.670	44.62	99.0927	4.2795	-11.791
2.678	44.72	99.0876	4.2793	-11.723
2.687	44.81	99.0825	4.2790	-11.656
2.695	44.90	99.0774	4.2788	-11.588
2.703	44.99	99.0723	4.2786	-11.520
2.712	45.09	99.0671	4.2784	-11.453
2.720	45.18	99.0620	4.2782	-11.384
2.728	45.27	99.0568	4.2779	-11.316
2.737	45.36	99.0516	4.2777	-11.248
2.745	45.46	99.0465	4.2775	-11.181
2.753	45.55	99.0413	4.2773	-11.114
2.762	45.64	99.0361	4.2770	-11.046
2.770	45.73	99.0309	4.2768	-10.978
2.778	45.82	99.0256	4.2766	-10.911
2.787	45.92	99.0204	4.2764	-10.846
2.795	46.01	99.0152	4.2761	-10.779
2.803	46.10	99.0099	4.2759	-10.714
2.812	46.19	99.0046	4.2757	-10.649
2.820	46.28	98.9993	4.2754	-10.583
2.828	46.37	98.9939	4.2752	-10.517
2.837	46.46	98.9886	4.2750	-10.452
2.845	46.56	98.9832	4.2748	-10.386
2.853	46.65	98.9778	4.2745	-10.321
2.862	46.74	98.9724	4.2743	-10.255
2.870	46.83	98.9670	4.2741	-10.189
2.878	46.92	98.9616	4.2738	-10.125
2.887	47.01	98.9561	4.2736	-10.061
2.895	47.10	98.9507	4.2733	-9.996
2.903	47.19	98.9452	4.2731	-9.932
2.912	47.28	98.9397	4.2729	-9.870
2.920	47.37	98.9342	4.2726	-9.807
2.928	47.47	98.9287	4.2724	-9.744
2.937	47.56	98.9232	4.2722	-9.682
2.945	47.65	98.9177	4.2719	-9.621
2.953	47.74	98.9122	4.2717	-9.559
2.962	47.83	98.9066	4.2714	-9.496
2.970	47.92	98.9011	4.2712	-9.435
2.978	48.01	98.8955	4.2710	-9.373
2.987	48.10	98.8899	4.2707	-9.310
2.995	48.19	98.8843	4.2705	-9.247
3.003	48.28	98.8787	4.2702	-9.185
3.012	48.37	98.8730	4.2700	-9.123
3.020	48.46	98.8674	4.2698	-9.060
3.028	48.55	98.8617	4.2695	-8.997
3.037	48.64	98.8561	4.2693	-8.936
3.045	48.73	98.8504	4.2690	-8.874
3.053	48.82	98.8447	4.2688	-8.812
3.062	48.90	98.8390	4.2685	-8.751
3.070	48.99	98.8333	4.2683	-8.691
3.078	49.08	98.8275	4.2680	-8.630
3.087	49.17	98.8218	4.2678	-8.570
3.095	49.26	98.8160	4.2675	-8.511
3.103	49.35	98.8103	4.2673	-8.452
3.112	49.44	98.8045	4.2670	-8.392
3.120	49.53	98.7987	4.2668	-8.332
3.128	49.62	98.7929	4.2665	-8.274
3.137	49.71	98.7871	4.2663	-8.216
3.145	49.79	98.7813	4.2660	-8.158
3.153	49.88	98.7755	4.2658	-8.101
3.162	49.97	98.7697	4.2655	-8.044
3.170	50.06	98.7638	4.2653	-7.986
3.178	50.15	98.7580	4.2650	-7.929
3.187	50.24	98.7521	4.2648	-7.871
3.195	50.33	98.7462	4.2645	-7.813
3.203	50.42	98.7403	4.2643	-7.757
3.212	50.50	98.7344	4.2640	-7.701
3.220	50.59	98.7285	4.2638	-7.643
3.228	50.68	98.7226	4.2635	-7.588
3.237	50.77	98.7167	4.2632	-7.531
3.245	50.86	98.7108	4.2630	-7.475
3.253	50.95	98.7048	4.2627	-7.419
3.262	51.03	98.6989	4.2625	-7.363
3.270	51.12	98.6929	4.2622	-7.309
3.278	51.21	98.6869	4.2620	-7.254
3.287	51.30	98.6809	4.2617	-7.200
3.295	51.38	98.6749	4.2614	-7.145
3.303	51.47	98.6689	4.2612	-7.091
3.312	51.56	98.6629	4.2609	-7.036
3.320	51.65	98.6569	4.2607	-6.981
3.328	51.73	98.6510	4.2604	-6.927
3.337	51.82	98.6449	4.2601	-6.873
3.345	51.91	98.6389	4.2599	-6.819
3.353	52.00	98.6329	4.2596	-6.765
3.362	52.08	98.6269	4.2594	-6.709
3.370	52.17	98.6208	4.2591	-6.655
3.378	52.26	98.6148	4.2588	-6.601
3.387	52.35	98.6087	4.2586	-6.547
3.395	52.43	98.6026	4.2583	-6.493
3.403	52.52	98.5965	4.2581	-6.439
3.412	52.61	98.5904	4.2578	-6.386
3.420	52.69	98.5843	4.2575	-6.332
3.428	52.78	98.5782	4.2573	-6.279
3.437	52.87	98.5721	4.2570	-6.225
3.445	52.95	98.5660	4.2567	-6.173
3.453	53.04	98.5599	4.2565	-6.120
3.462	53.13	98.5538	4.2562	-6.068
3.470	53.22	98.5476	4.2559	-6.015
3.478	53.30	98.5415	4.2557	-5.963
3.487	53.39	98.5354	4.2554	-5.911
3.495	53.47	98.5293	4.2552	-5.860
3.503	53.56	98.5232	4.2549	-5.808
3.512	53.65	98.5170	4.2546	-5.758
3.520	53.73	98.5109	4.2544	-5.709
3.528	53.82	98.5048	4.2541	-5.659
3.537	53.91	98.4987	4.2538	-5.610
3.545	53.99	98.4925	4.2536	-5.560
3.553	54.08	98.4864	4.2533	-5.512
3.562	54.16	98.4803	4.2530	-5.463
3.570	54.25	98.4741	4.2528	-5.414
3.578	54.34	98.4680	4.2525	-5.365
3.587	54.42	98.4618	4.2522	-5.316
3.595	54.51	98.4556	4.2520	-5.267
3.603	54.59	98.4494	4.2517	-5.218
3.612	54.68	98.4432	4.2514	-5.167
3.620	54.77	98.4370	4.2512	-5.118
3.628	54.85	98.4307	4.2509	-5.069
3.637	54.94	98.4245	4.2506	-5.021
3.645	55.03	98.4182	4.2504	-4.972
3.653	55.11	98.4120	4.2501	-4.923
3.662	55.20	98.4057	4.2498	-4.875
3.670	55.28	98.3995	4.2495	-4.827
3.678	55.37	98.3932	4.2493	-4.779
3.687	55.45	98.3870	4.2490	-4.731
3.695	55.54	98.3807	4.2487	-4.685
3.703	55.62	98.3745	4.2485	-4.638
3.712	55.71	98.3682	4.2482	-4.589
3.720	55.80	98.3620	4.2479	-4.541
3.728	55.88	98.3558	4.2477	-4.495
3.737	55.97	98.3496	4.2474	-4.448
3.745	56.05	98.3433	4.2471	-4.401
3.753	56.14	98.3371	4.2469	-4.355
3.762	56.22	98.3309	4.2466	-4.309
3.770	56.31	98.3247	4.2463	-4.262
3.778	56.39	98.3185	4.2460	-4.215
3.787	56.48	98.3123	4.2458	-4.168
3.795	56.56	98.3060	4.2455	-4.122
3.803	56.65	98.2998	4.2452	-4.076
3.812	56.73	98.2936	4.2450	-4.030
3.820	56.82	98.2874	4.2447	-3.985
3.828	56.91	98.2812	4.2444	-3.940
3.837	56.99	98.2750	4.2442	-3.894
3.845	57.08	98.2688	4.2439	-3.849
3.853	57.16	98.2626	4.2436	-3.804
3.862	57.25	98.2564	4.2434	-3.760
3.870	57.33	98.2503	4.2431	-3.715
3.878	57.42	98.2441	4.2428	-3.670
3.887	57.50	98.2379	4.2426	-3.627
3.895	57.59	98.2318	4.2423	-3.582
3.903	57.67	98.2256	4.2420	-3.537
3.912	57.76	98.2195	4.2418	-3.493
3.920	57.84	98.2134	4.2415	-3.449
3.928	57.92	98.2072	4.2412	-3.405
3.937	58.01	98.2011	4.2410	-3.361
3.945	58.09	98.1950	4.2407	-3.318
3.953	58.18	98.1889	4.2405	-3.275
3.962	58.26	98.1828	4.2402	-3.232
3.970	58.35	98.1767	4.2399	-3.188
3.978	58.43	98.1706	4.2397	-3.147
3.987	58.52	98.1646	4.2394	-3.105
3.995	58.60	98.1585	4.2391	-3.062
4.003	58.69	98.1524	4.2389	-3.019
4.012	58.77	98.1463	4.2386	-2.976
4.020	58.86	98.1403	4.2384	-2.932
4.028	58.94	98.1342	4.2381	-2.889
4.037	59.03	98.1281	4.2378	-2.847
4.045	59.11	98.1221	4.2376	-2.804
4.053	59.20	98.1161	4.2373	-2.763
4.062	59.28	98.1100	4.2370	-2.720
4.070	59.37	98.1040	4.2368	-2.677
4.078	59.45	98.0980	4.2365	-2.635
4.087	59.53	98.0920	4.2363	-2.593
4.095	59.62	98.0859	4.2360	-2.552
4.103	59.70	98.0799	4.2357	-2.510
4.112	59.79	98.0739	4.2355	-2.469
4.120	59.87	98.0679	4.2352	-2.428
4.128	59.96	98.0620	4.2350	-2.387
4.137	60.04	98.0560	4.2347	-2.346
4.145	60.13	98.0500	4.2345	-2.306
4.153	60.21	98.0441	4.2342	-2.266
4.162	60.29	98.0382	4.2339	-2.225
4.170	60.38	98.0323	4.2337	-2.185
4.178	60.46	98.0264	4.2334	-2.145
4.187	60.55	98.0205	4.2332	-2.106
4.195	60.63	98.0146	4.2329	-2.067
4.203	60.72	98.0088	4.2327	-2.027
4.212	60.80	98.0029	4.2324	-1.986
4.220	60.89	97.9971	4.2322	-1.945
4.228	60.97	97.9912	4.2319	-1.905
4.237	61.06	97.9854	4.2317	-1.864
4.245	61.14	97.9795	4.2314	-1.824
4.253	61.23	97.9737	4.2312	-1.785
4.262	61.31	97.9679	4.2309	-1.744
4.270	61.39	97.9621	4.2307	-1.703
4.278	61.48	97.9562	4.2304	-1.663
4.287	61.56	97.9505	4.2302	-1.621
4.295	61.65	97.9447	4.2299	-1.582
4.303	61.73	97.9389	4.2297	-1.542
4.312	61.82	97.9332	4.2294	-1.503
4.320	61.90	97.9274	4.2292	-1.463
4.328	61.99	97.9217	4.2289	-1.425
4.337	62.07	97.9160	4.2287	-1.385
4.345	62.16	97.9103	4.2284	-1.347
4.353	62.24	97.9046	4.2282	-1.309
4.362	62.32	97.8989	4.2279	-1.270
4.370	62.41	97.8933	4.2277	-1.233
4.378	62.49	97.8876	4.2274	-1.195
4.387	62.58	97.8820	4.2272	-1.156
4.395	62.66	97.8763	4.2270	-1.118
4.403	62.75	97.8707	4.2267	-1.080
4.412	62.83	97.8651	4.2265	-1.041
4.420	62.91	97.8595	4.2262	-1.003
4.428	63.00	97.8539	4.2260	-0.965
4.437	63.08	97.8483	4.2257	-0.928
4.445	63.17	97.8427	4.2255	-0.890
4.453	63.25	97.8372	4.2253	-0.853
4.462	63.34	97.8317	4.2250	-0.816
4.470	63.42	97.8261	4.2248	-0.779
4.478	63.51	97.8206	4.2245	-0.743
4.487	63.59	97.8151	4.2243	-0.706
4.495	63.67	97.8096	4.2241	-0.670
4.503	63.76	97.8041	4.2238	-0.634
4.512	63.84	97.7986	4.2236	-0.599
4.520	63.93	97.7932	4.2234	-0.563
4.528	64.01	97.7877	4.2231	-0.526
4.537	64.10	97.7823	4.2229	-0.489
4.545	64.18	97.7769	4.2227	-0.453
4.553	64.27	97.7715	4.2224	-0.417
4.562	64.35	97.7661	4.2222	-0.381
4.570	64.44	97.7607	4.2220	-0.346
4.578	64.52	97.7554	4.2217	-0.311
4.587	64.61	97.7500	4.2215	-0.275
4.595	64.69	97.7447	4.2213	-0.238
4.603	64.77	97.7395	4.2210	-0.202
4.612	64.86	97.7342	4.2208	-0.167
4.620	64.94	97.7289	4.2206	-0.132
4.628	65.03	97.7237	4.2204	-0.097
4.637	65.11	97.7185	4.2201	-0.062
4.645	65.20	97.7133	4.2199	-0.026
4.653	65.28	97.7081	4.2197	0.010
4.662	65.37	97.7030	4.2195	0.046
4.670	65.45	97.6978	4.2192	0.082
4.678	65.54	97.6927	4.2190	0.117
4.687	65.62	97.6875	4.2188	0.152
4.695	65.71	97.6824	4.2186	0.187
4.703	65.79	97.6773	4.2184	0.222
4.712	65.87	97.6722	4.2181	0.256
4.720	65.96	97.6671	4.2179	0.291
4.728	66.04	97.6620	4.2177	0.326
4.737	66.13	97.6570	4.2175	0.361
4.745	66.21	97.6519	4.2173	0.396
4.753	66.30	97.6468	4.2170	0.431
4.762	66.38	97.6418	4.2168	0.466
4.770	66.47	97.6368	4.2166	0.500
4.778	66.55	97.6318	4.2164	0.535
4.787	66.64	97.6268	4.2162	0.569
4.795	66.72	97.6219	4.2160	0.603
4.803	66.81	97.6169	4.2158	0.636
4.812	66.89	97.6120	4.2155	0.668
4.820	66.98	97.6071	4.2153	0.700
4.828	67.06	97.6023	4.2151	0.732
4.837	67.15	97.5974	4.2149	0.765
4.845	67.23	97.5925	4.2147	0.798
4.853	67.32	97.5877	4.2145	0.829
4.862	67.40	97.5829	4.2143	0.860
4.870	67.49	97.5781	4.2141	0.894
4.878	67.57	97.5733	4.2139	0.927
4.887	67.66	97.5686	4.2137	0.961
4.895	67.74	97.5638	4.2135	0.995
4.903	67.83	97.5591	4.2133	1.030
4.912	67.91	97.5544	4.2130	1.064
4.920	68.00	97.5497	4.2128	1.096
4.928	68.08	97.5450	4.2126	1.129
4.937	68.16	97.5404	4.2124	1.162
4.945	68.25	97.5358	4.2122	1.196
4.953	68.33	97.5311	4.2120	1.229
4.962	68.42	97.5265	4.2118	1.261
4.970	68.50	97.5220	4.2116	1.295
4.978	68.59	97.5174	4.2115	1.327
4.987	68.67	97.5128	4.2113	1.359
4.995	68.76	97.5083	4.2111	1.392
5.003	68.85	97.5038	4.2109	1.424
5.012	68.93	97.4992	4.2107	1.457
5.020	69.02	97.4947	4.2105	1.489
5.028	69.10	97.4903	4.2103	1.520
5.037	69.19	97.4858	4.2101	1.553
5.045	69.27	97.4814	4.2099	1.584
5.053	69.36	97.4769	4.2097	1.614
5.062	69.44	97.4725	4.2095	1.645
5.070	69.53	97.4681	4.2093	1.676
5.078	69.61	97.4638	4.2091	1.707
5.087	69.70	97.4595	4.2089	1.739
5.095	69.78	97.4552	4.2088	1.769
5.103	69.87	97.4509	4.2086	1.800
5.112	69.95	97.4466	4.2084	1.831
5.120	70.04	97.4423	4.2082	1.862
5.128	70.12	97.4380	4.2080	1.893
5.137	70.21	97.4338	4.2078	1.925
5.145	70.29	97.4296	4.2077	1.956
5.153	70.38	97.4254	4.2075	1.987
5.162	70.46	97.4212	4.2073	2.017
5.170	70.55	97.4170	4.2071	2.047
5.178	70.63	97.4128	4.2069	2.078
5.187	70.72	97.4086	4.2068	2.108
5.195	70.80	97.4045	4.2066	2.140
5.203	70.89	97.4004	4.2064	2.170
5.212	70.98	97.3963	4.2062	2.201
5.220	71.06	97.3922	4.2060	2.231
5.228	71.15	97.3881	4.2059	2.261
5.237	71.23	97.3841	4.2057	2.291
5.245	71.32	97.3801	4.2055	2.321
5.253	71.40	97.3761	4.2053	2.351
5.262	71.49	97.3721	4.2052	2.382
5.270	71.58	97.3682	4.2050	2.412
5.278	71.66	97.3642	4.2048	2.440
5.287	71.75	97.3603	4.2047	2.468
5.295	71.83	97.3564	4.2045	2.496
5.303	71.92	97.3525	4.2043	2.525
5.312	72.00	97.3487	4.2042	2.554
5.320	72.09	97.3448	4.2040	2.584
5.328	72.17	97.3410	4.2038	2.613
5.337	72.26	97.3372	4.2037	2.642
5.345	72.34	97.3334	4.2035	2.671
5.353	72.43	97.3297	4.2033	2.700
5.362	72.52	97.3260	4.2032	2.729
5.370	72.60	97.3223	4.2030	2.758
5.378	72.69	97.3187	4.2029	2.789
5.387	72.77	97.3151	4.2027	2.817
5.395	72.86	97.3115	4.2026	2.846
5.403	72.94	97.3079	4.2024	2.873
5.412	73.03	97.3044	4.2023	2.901
5.420	73.11	97.3009	4.2021	2.929
5.428	73.20	97.2975	4.2020	2.957
5.437	73.29	97.2940	4.2018	2.985
5.445	73.37	97.2906	4.2017	3.014
5.453	73.46	97.2871	4.2015	3.043
5.462	73.54	97.2837	4.2014	3.069
5.470	73.63	97.2803	4.2012	3.097
5.478	73.71	97.2769	4.2011	3.124
5.487	73.80	97.2735	4.2009	3.152
5.495	73.89	97.2701	4.2008	3.180
5.503	73.97	97.2667	4.2006	3.209
5.512	74.06	97.2633	4.2005	3.236
5.520	74.14	97.2599	4.2003	3.263
5.528	74.23	97.2566	4.2002	3.290
5.537	74.32	97.2533	4.2000	3.317
5.545	74.40	97.2500	4.1999	3.343
5.553	74.49	97.2468	4.1998	3.370
5.562	74.57	97.2436	4.1996	3.396
5.570	74.66	97.2404	4.1995	3.423
5.578	74.74	97.2373	4.1994	3.451
5.587	74.83	97.2342	4.1992	3.477
5.595	74.92	97.2311	4.1991	3.505
5.603	75.00	97.2281	4.1990	3.532
5.612	75.09	97.2250	4.1988	3.559
5.620	75.17	97.2219	4.1987	3.585
5.628	75.26	97.2188	4.1986	3.612
5.637	75.35	97.2157	4.1984	3.639
5.645	75.43	97.2126	4.1983	3.666
5.653	75.52	97.2095	4.1982	3.692
5.662	75.60	97.2063	4.1980	3.718
5.670	75.69	97.2032	4.1979	3.745
5.678	75.78	97.2001	4.1977	3.769
5.687	75.86	97.1970	4.1976	3.795
5.695	75.95	97.1940	4.1975	3.822
5.703	76.03	97.1909	4.1974	3.848
5.712	76.12	97.1879	4.1972	3.875
5.720	76.21	97.1849	4.1971	3.901
5.728	76.29	97.1821	4.1970	3.927
5.737	76.38	97.1793	4.1969	3.953
5.745	76.46	97.1765	4.1967	3.977
5.753	76.55	97.1738	4.1966	4.002
5.762	76.64	97.1710	4.1965	4.027
5.770	76.72	97.1683	4.1964	4.053
5.778	76.81	97.1657	4.1963	4.078
5.787	76.89	97.1630	4.1961	4.102
5.795	76.98	97.1604	4.1960	4.126
5.803	77.07	97.1578	4.1959	4.150
5.812	77.15	97.1551	4.1958	4.174
5.820	77.24	97.1524	4.1957	4.198
5.828	77.32	97.1497	4.1956	4.223
5.837	77.41	97.1471	4.1955	4.248
5.845	77.50	97.1444	4.1953	4.272
5.853	77.58	97.1417	4.1952	4.296
5.862	77.67	97.1390	4.1951	4.319
5.870	77.75	97.1363	4.1950	4.342
5.878	77.84	97.1337	4.1949	4.366
5.887	77.93	97.1310	4.1948	4.390
5.895	78.01	97.1284	4.1947	4.414
5.903	78.10	97.1258	4.1945	4.438
5.912	78.18	97.1233	4.1944	4.461
5.920	78.27	97.1207	4.1943	4.484
5.928	78.36	97.1182	4.1942	4.506
5.937	78.44	97.1157	4.1941	4.529
5.945	78.53	97.1133	4.1940	4.551
5.953	78.62	97.1108	4.1939	4.574
5.962	78.70	97.1082	4.1938	4.598
5.970	78.79	97.1057	4.1937	4.622
5.978	78.87	97.1031	4.1936	4.645
5.987	78.96	97.1006	4.1935	4.669
5.995	79.05	97.0981	4.1933	4.693
6.003	79.13	97.0956	4.1932	4.717
6.012	79.22	97.0931	4.1931	4.742
6.020	79.31	97.0905	4.1930	4.766
6.028	79.39	97.0880	4.1929	4.789
6.037	79.48	97.0856	4.1928	4.813
6.045	79.56	97.0832	4.1927	4.836
6.053	79.65	97.0809	4.1926	4.857
6.062	79.74	97.0786	4.1925	4.878
6.070	79.82	97.0763	4.1924	4.900
6.078	79.91	97.0740	4.1923	4.922
6.087	80.00	97.0717	4.1922	4.943
6.095	80.08	97.0693	4.1921	4.964
6.103	80.17	97.0670	4.1920	4.985
6.112	80.25	97.0646	4.1919	5.008
6.120	80.34	97.0622	4.1918	5.030
6.128	80.43	97.0598	4.1917	5.050
6.137	80.51	97.0573	4.1916	5.070
6.145	80.60	97.0549	4.1915	5.091
6.153	80.68	97.0524	4.1914	5.112
6.162	80.77	97.0500	4.1913	5.132
6.170	80.86	97.0475	4.1912	5.153
6.178	80.94	97.0451	4.1911	5.174
6.187	81.03	97.0428	4.1910	5.195
6.195	81.12	97.0404	4.1909	5.216
6.203	81.20	97.0381	4.1908	5.238
6.212	81.29	97.0358	4.1907	5.260
6.220	81.38	97.0336	4.1906	5.282
6.228	81.46	97.0314	4.1905	5.304
6.237	81.55	97.0292	4.1904	5.325
6.245	81.63	97.0271	4.1903	5.346
6.253	81.72	97.0251	4.1902	5.366
6.262	81.81	97.0231	4.1901	5.387
6.270	81.89	97.0211	4.1900	5.408
6.278	81.98	97.0192	4.1899	5.428
6.287	82.07	97.0173	4.1899	5.447
6.295	82.15	97.0154	4.1898	5.467
6.303	82.24	97.0135	4.1897	5.486
6.312	82.33	97.0117	4.1896	5.506
6.320	82.41	97.0100	4.1895	5.526
6.328	82.50	97.0082	4.1895	5.547
6.337	82.59	97.0064	4.1894	5.568
6.345	82.67	97.0047	4.1893	5.589
6.353	82.76	97.0029	4.1892	5.609
6.362	82.85	97.0012	4.1892	5.628
6.370	82.93	96.9994	4.1891	5.647
6.378	83.02	96.9977	4.1890	5.666
6.387	83.11	96.9959	4.1889	5.686
6.395	83.19	96.9940	4.1888	5.706
6.403	83.28	96.9921	4.1888	5.725
6.412	83.36	96.9902	4.1887	5.743
6.420	83.45	96.9883	4.1886	5.762
6.428	83.54	96.9864	4.1885	5.780
6.437	83.62	96.9846	4.1884	5.799
6.445	83.71	96.9828	4.1884	5.818
6.453	83.80	96.9810	4.1883	5.838
6.462	83.88	96.9792	4.1882	5.858
6.470	83.97	96.9775	4.1881	5.876
6.478	84.05	96.9758	4.1881	5.894
6.487	84.14	96.9742	4.1880	5.913
6.495	84.23	96.9726	4.1879	5.932
6.503	84.31	96.9710	4.1879	5.951
6.512	84.40	96.9695	4.1878	5.970
6.520	84.49	96.9679	4.1877	5.988
6.528	84.57	96.9664	4.1877	6.005
6.537	84.66	96.9649	4.1876	6.021
6.545	84.75	96.9634	4.1875	6.038
6.553	84.83	96.9621	4.1875	6.055
6.562	84.92	96.9607	4.1874	6.073
6.570	85.00	96.9593	4.1873	6.089
6.578	85.09	96.9579	4.1873	6.106
6.587	85.18	96.9565	4.1872	6.122
6.595	85.26	96.9552	4.1872	6.138
6.603	85.35	96.9537	4.1871	6.155
6.612	85.44	96.9523	4.1870	6.172
6.620	85.52	96.9508	4.1870	6.189
6.628	85.61	96.9492	4.1869	6.207
6.637	85.70	96.9476	4.1868	6.225
6.645	85.78	96.9460	4.1868	6.242
6.653	85.87	96.9443	4.1867	6.259
6.662	85.96	96.9426	4.1866	6.277
6.670	86.04	96.9410	4.1866	6.294
6.678	86.13	96.9394	4.1865	6.311
6.687	86.21	96.9378	4.1864	6.327
6.695	86.30	96.9362	4.1864	6.343
6.703	86.39	96.9347	4.1863	6.359
6.712	86.47	96.9332	4.1862	6.375
6.720	86.56	96.9317	4.1862	6.389
6.728	86.64	96.9302	4.1861	6.404
6.737	86.73	96.9288	4.1860	6.419
6.745	86.82	96.9274	4.1860	6.433
6.753	86.90	96.9261	4.1859	6.447
6.762	86.99	96.9249	4.1859	6.463
6.770	87.08	96.9236	4.1858	6.479
6.778	87.16	96.9224	4.1858	6.494
6.787	87.25	96.9212	4.1857	6.510
6.795	87.33	96.9200	4.1857	6.525
6.803	87.42	96.9189	4.1856	6.541
6.812	87.51	96.9177	4.1856	6.556
6.820	87.59	96.9166	4.1855	6.571
6.828	87.68	96.9155	4.1855	6.587
6.837	87.76	96.9144	4.1854	6.602
6.845	87.85	96.9132	4.1854	6.616
6.853	87.94	96.9121	4.1853	6.631
6.862	88.02	96.9110	4.1853	6.646
6.870	88.11	96.9099	4.1852	6.661
6.878	88.19	96.9088	4.1852	6.675
6.887	88.28	96.9076	4.1851	6.690
6.895	88.37	96.9064	4.1851	6.705
6.903	88.45	96.9053	4.1850	6.718
6.912	88.54	96.9041	4.1850	6.732
6.920	88.63	96.9030	4.1849	6.746
6.928	88.71	96.9018	4.1849	6.761
6.937	88.80	96.9007	4.1848	6.775
6.945	88.88	96.8995	4.1848	6.788
6.953	88.97	96.8983	4.1847	6.801
6.962	89.06	96.8972	4.1847	6.815
6.970	89.14	96.8960	4.1846	6.829
6.978	89.23	96.8949	4.1846	6.843
6.987	89.31	96.8938	4.1845	6.857
6.995	89.40	96.8927	4.1845	6.871
7.003	89.49	96.8916	4.1844	6.884
7.012	89.57	96.8905	4.1844	6.896
7.020	89.66	96.8894	4.1843	6.908
7.028	89.75	96.8883	4.1843	6.921
7.037	89.83	96.8872	4.1842	6.934
7.045	89.92	96.8861	4.1842	6.945
7.053	90.00	96.8850	4.1841	6.957
7.062	90.09	96.8839	4.1841	6.969
7.070	90.18	96.8829	4.1840	6.981
7.078	90.26	96.8819	4.1840	6.993
7.087	90.35	96.8808	4.1840	7.006
7.095	90.43	96.8799	4.1839	7.018
7.103	90.52	96.8789	4.1839	7.031
7.112	90.61	96.8780	4.1838	7.043
7.120	90.69	96.8771	4.1838	7.056
7.128	90.78	96.8761	4.1838	7.069
7.137	90.86	96.8752	4.1837	7.082
7.145	90.95	96.8744	4.1837	7.094
7.153	91.04	96.8735	4.1836	7.108
7.162	91.12	96.8726	4.1836	7.120
7.170	91.21	96.8717	4.1836	7.131
7.178	91.30	96.8708	4.1835	7.143
7.187	91.38	96.8698	4.1835	7.155
7.195	91.47	96.8690	4.1834	7.167
7.203	91.55	96.8681	4.1834	7.178
7.212	91.64	96.8673	4.1834	7.190
7.220	91.73	96.8665	4.1833	7.202
7.228	91.81	96.8658	4.1833	7.213
7.237	91.90	96.8651	4.1833	7.223
7.245	91.98	96.8644	4.1833	7.233
7.253	92.07	96.8638	4.1832	7.244
7.262	92.15	96.8631	4.1832	7.255
7.270	92.24	96.8625	4.1832	7.265
7.278	92.33	96.8619	4.1831	7.275
7.287	92.41	96.8612	4.1831	7.285
7.295	92.50	96.8605	4.1831	7.295
7.303	92.58	96.8598	4.1831	7.305
7.312	92.67	96.8591	4.1830	7.316
7.320	92.76	96.8583	4.1830	7.326
7.328	92.84	96.8576	4.1830	7.337
7.337	92.93	96.8569	4.1829	7.347
7.345	93.01	96.8561	4.1829	7.358
7.353	93.10	96.8554	4.1829	7.368
7.362	93.19	96.8547	4.1828	7.377
7.370	93.27	96.8540	4.1828	7.387
7.378	93.36	96.8533	4.1828	7.397
7.387	93.44	96.8526	4.1827	7.406
7.395	93.53	96.8519	4.1827	7.414
7.403	93.62	96.8512	4.1827	7.423
7.412	93.70	96.8505	4.1826	7.432
7.420	93.79	96.8498	4.1826	7.441
7.428	93.87	96.8491	4.1826	7.451
7.437	93.96	96.8485	4.1826	7.460
7.445	94.04	96.8478	4.1825	7.469
7.453	94.13	96.8472	4.1825	7.478
7.462	94.22	96.8466	4.1825	7.487
7.470	94.30	96.8460	4.1825	7.496
7.478	94.39	96.8453	4.1824	7.505
7.487	94.47	96.8447	4.1824	7.513
7.495	94.56	96.8441	4.1824	7.521
7.503	94.65	96.8436	4.1824	7.528
7.512	94.73	96.8430	4.1823	7.535
7.520	94.82	96.8424	4.1823	7.543
7.528	94.90	96.8418	4.1823	7.550
7.537	94.99	96.8413	4.1823	7.558
7.545	95.08	96.8407	4.1822	7.566
7.553	95.16	96.8402	4.1822	7.574
7.562	95.25	96.8396	4.1822	7.583
7.570	95.33	96.8391	4.1822	7.592
7.578	95.42	96.8386	4.1821	7.600
7.587	95.50	96.8380	4.1821	7.609
7.595	95.59	96.8375	4.1821	7.618
7.603	95.68	96.8370	4.1821	7.627
7.612	95.76	96.8365	4.1820	7.636
7.620	95.85	96.8360	4.1820	7.643
7.628	95.93	96.8355	4.1820	7.651
7.637	96.02	96.8350	4.1820	7.658
7.645	96.11	96.8345	4.1820	7.665
7.653	96.19	96.8341	4.1819	7.672
7.662	96.28	96.8336	4.1819	7.678
7.670	96.36	96.8331	4.1819	7.684
7.678	96.45	96.8327	4.1819	7.690
7.687	96.53	96.8322	4.1819	7.695
7.695	96.62	96.8318	4.1818	7.701
7.703	96.71	96.8314	4.1818	7.707
7.712	96.79	96.8309	4.1818	7.713
7.720	96.88	96.8305	4.1818	7.719
7.728	96.96	96.8301	4.1818	7.724
7.737	97.05	96.8297	4.1818	7.730
7.745	97.13	96.8293	4.1817	7.736
7.753	97.22	96.8289	4.1817	7.742
7.762	97.31	96.8285	4.1817	7.748
7.770	97.39	96.8281	4.1817	7.754
7.778	97.48	96.8277	4.1817	7.760
7.787	97.56	96.8273	4.1816	7.766
7.795	97.65	96.8269	4.1816	7.772
7.803	97.73	96.8265	4.1816	7.778
7.812	97.82	96.8261	4.1816	7.784
7.820	97.91	96.8257	4.1816	7.791
7.828	97.99	96.8253	4.1816	7.797
7.837	98.08	96.8249	4.1815	7.804
7.845	98.16	96.8245	4.1815	7.812
7.853	98.25	96.8242	4.1815	7.819
7.862	98.33	96.8238	4.1815	7.825
7.870	98.42	96.8234	4.1815	7.831
7.878	98.50	96.8231	4.1815	7.837
7.887	98.59	96.8227	4.1815	7.842
7.895	98.67	96.8224	4.1814	7.847
7.903	98.76	96.8221	4.1814	7.852
7.912	98.85	96.8218	4.1814	7.856
7.920	98.93	96.8215	4.1814	7.860
7.928	99.02	96.8211	4.1814	7.864
7.937	99.10	96.8208	4.1814	7.868
7.945	99.19	96.8205	4.1814	7.871
7.953	99.27	96.8202	4.1813	7.874
7.962	99.36	96.8199	4.1813	7.879
7.970	99.45	96.8195	4.1813	7.883
7.978	99.53	96.8192	4.1813	7.887
7.987	99.62	96.8189	4.1813	7.892
7.995	99.70	96.8186	4.1813	7.896
8.003	99.79	96.8182	4.1813	7.901
8.012	99.87	96.8179	4.1812	7.905
8.020	99.96	96.8175	4.1812	7.910
8.028	100.04	96.8172	4.1812	7.915
8.037	100.13	96.8168	4.1812	7.919
8.045	100.22	96.8165	4.1812	7.923
8.053	100.30	96.8162	4.1812	7.926
8.062	100.39	96.8158	4.1812	7.929
8.070	100.47	96.8155	4.1811	7.932
8.078	100.56	96.8152	4.1811	7.935
8.087	100.64	96.8149	4.1811	7.937
8.095	100.73	96.8146	4.1811	7.940
8.103	100.82	96.8143	4.1811	7.943
8.112	100.90	96.8141	4.1811	7.946
8.120	100.99	96.8138	4.1811	7.949
8.128	101.07	96.8136	4.1811	7.952
8.137	101.16	96.8133	4.1810	7.955
8.145	101.24	96.8131	4.1810	7.958
8.153	101.33	96.8128	4.1810	7.961
8.162	101.41	96.8126	4.1810	7.964
8.170	101.50	96.8123	4.1810	7.967
8.178	101.58	96.8121	4.1810	7.970
8.187	101.67	96.8118	4.1810	7.972
8.195	101.75	96.8116	4.1810	7.974
8.203	101.84	96.8114	4.1810	7.977
8.212	101.93	96.8111	4.1809	7.979
8.220	102.01	96.8109	4.1809	7.982
8.228	102.10	96.8106	4.1809	7.985
8.237	102.18	96.8104	4.1809	7.988
8.245	102.27	96.8101	4.1809	7.991
8.253	102.35	96.8099	4.1809	7.994
8.262	102.44	96.8096	4.1809	7.996
8.270	102.52	96.8094	4.1809	7.999
8.278	102.61	96.8091	4.1809	8.002
8.287	102.69	96.8089	4.1809	8.004
8.295	102.78	96.8087	4.1808	8.006
8.303	102.87	96.8085	4.1808	8.008
8.312	102.95	96.8083	4.1808	8.010
8.320	103.04	96.8081	4.1808	8.012
8.328	103.12	96.8079	4.1808	8.013
8.337	103.21	96.8077	4.1808	8.015
8.345	103.29	96.8075	4.1808	8.017
8.353	103.38	96.8073	4.1808	8.019
8.362	103.46	96.8071	4.1808	8.020
8.370	103.55	96.8070	4.1808	8.022
8.378	103.63	96.8068	4.1808	8.024
8.387	103.72	96.8066	4.1808	8.026
8.395	103.81	96.8064	4.1807	8.027
8.403	103.89	96.8062	4.1807	8.029
8.412	103.98	96.8060	4.1807	8.030
8.420	104.06	96.8058	4.1807	8.031
8.428	104.15	96.8056	4.1807	8.033
8.437	104.23	96.8054	4.1807	8.034
8.445	104.32	96.8052	4.1807	8.035
8.453	104.40	96.8050	4.1807	8.037
8.462	104.49	96.8048	4.1807	8.038
8.470	104.58	96.8046	4.1807	8.039
8.478	104.66	96.8044	4.1807	8.041
8.487	104.75	96.8042	4.1807	8.042
8.495	104.83	96.8041	4.1806	8.044
8.503	104.92	96.8039	4.1806	8.046
8.512	105.00	96.8037	4.1806	8.047
8.520	105.09	96.8035	4.1806	8.049
8.528	105.17	96.8033	4.1806	8.050
8.537	105.26	96.8032	4.1806	8.052
8.545	105.35	96.8030	4.1806	8.053
8.553	105.43	96.8028	4.1806	8.055
8.562	105.52	96.8026	4.1806	8.056
8.570	105.60	96.8024	4.1806	8.056
8.578	105.69	96.8023	4.1806	8.057
8.587	105.77	96.8021	4.1806	8.057
8.595	105.86	96.8019	4.1806	8.058
8.603	105.94	96.8017	4.1805	8.058
8.612	106.03	96.8016	4.1805	8.058
8.620	106.11	96.8015	4.1805	8.058
8.628	106.20	96.8013	4.1805	8.058
8.637	106.28	96.8012	4.1805	8.059
8.645	106.37	96.8011	4.1805	8.059
8.653	106.46	96.8009	4.1805	8.059
8.662	106.54	96.8008	4.1805	8.060

[step]
Isothermal 30.0 min
Time	Temperature	Weight	Weight	Heat Flow
min	°C	%	mg	mW
8.670	106.63	96.8007	4.1805	8.060
8.695	106.88	96.8003	4.1805	8.061
8.720	107.14	96.7999	4.1805	8.061
8.745	107.39	96.7994	4.1804	8.062
8.770	107.65	96.7990	4.1804	8.065
8.795	107.90	96.7986	4.1804	8.069
8.820	108.15	96.7981	4.1804	8.076
8.845	108.40	96.7977	4.1804	8.085
8.870	108.64	96.7972	4.1803	8.097
8.895	108.88	96.7966	4.1803	8.112
8.920	109.12	96.7960	4.1803	8.136
8.945	109.35	96.7953	4.1803	8.164
8.970	109.58	96.7946	4.1802	8.198
8.995	109.80	96.7939	4.1802	8.237
9.020	110.01	96.7932	4.1802	8.279
9.045	110.23	96.7924	4.1801	8.318
9.070	110.43	96.7915	4.1801	8.358
9.095	110.63	96.7907	4.1801	8.397
9.120	110.82	96.7898	4.1800	8.442
9.145	111.01	96.7889	4.1800	8.491
9.170	111.19	96.7881	4.1800	8.540
9.195	111.36	96.7872	4.1799	8.590
9.220	111.53	96.7863	4.1799	8.638
9.245	111.69	96.7853	4.1798	8.686
9.270	111.85	96.7843	4.1798	8.731
9.295	111.99	96.7832	4.1797	8.777
9.320	112.13	96.7821	4.1797	8.825
9.345	112.27	96.7810	4.1796	8.875
9.370	112.39	96.7799	4.1796	8.922
9.395	112.51	96.7790	4.1796	8.964
9.420	112.62	96.7781	4.1795	9.008
9.445	112.73	96.7773	4.1795	9.051
9.470	112.83	96.7766	4.1795	9.096
9.495	112.91	96.7759	4.1794	9.138
9.520	112.99	96.7751	4.1794	9.179
9.545	113.07	96.7742	4.1794	9.218
9.570	113.14	96.7732	4.1793	9.256
9.595	113.20	96.7722	4.1793	9.293
9.620	113.25	96.7713	4.1792	9.328
9.645	113.30	96.7703	4.1792	9.358
9.670	113.34	96.7691	4.1791	9.383
9.695	113.37	96.7679	4.1791	9.406
9.720	113.40	96.7668	4.1790	9.424
9.745	113.43	96.7657	4.1790	9.440
9.770	113.45	96.7645	4.1789	9.453
9.795	113.46	96.7632	4.1789	9.464
9.820	113.47	96.7617	4.1788	9.474
9.845	113.48	96.7605	4.1788	9.482
9.870	113.48	96.7595	4.1787	9.488
9.895	113.47	96.7587	4.1787	9.491
9.920	113.46	96.7580	4.1787	9.493
9.945	113.45	96.7571	4.1786	9.494
9.970	113.43	96.7562	4.1786	9.495
9.995	113.41	96.7552	4.1785	9.493
10.020	113.39	96.7544	4.1785	9.490
10.045	113.36	96.7538	4.1785	9.483
10.070	113.33	96.7529	4.1784	9.473
10.095	113.29	96.7518	4.1784	9.458
10.120	113.26	96.7504	4.1783	9.438
10.145	113.22	96.7490	4.1783	9.415
10.170	113.18	96.7477	4.1782	9.387
10.195	113.14	96.7466	4.1782	9.354
10.220	113.10	96.7455	4.1781	9.318
10.245	113.06	96.7444	4.1781	9.279
10.270	113.02	96.7434	4.1780	9.240
10.295	112.97	96.7425	4.1780	9.200
10.320	112.93	96.7417	4.1779	9.158
10.345	112.89	96.7408	4.1779	9.114
10.370	112.84	96.7399	4.1779	9.073
10.395	112.80	96.7391	4.1778	9.031
10.420	112.76	96.7385	4.1778	8.991
10.445	112.71	96.7378	4.1778	8.950
10.470	112.67	96.7371	4.1778	8.906
10.495	112.62	96.7365	4.1777	8.862
10.520	112.58	96.7356	4.1777	8.817
10.545	112.54	96.7349	4.1777	8.776
10.570	112.50	96.7343	4.1776	8.737
10.595	112.45	96.7338	4.1776	8.698
10.620	112.41	96.7335	4.1776	8.658
10.645	112.37	96.7330	4.1776	8.616
10.670	112.33	96.7324	4.1776	8.576
10.695	112.29	96.7319	4.1775	8.538
10.720	112.26	96.7316	4.1775	8.499
10.745	112.22	96.7313	4.1775	8.458
10.770	112.18	96.7310	4.1775	8.418
10.795	112.15	96.7306	4.1775	8.382
10.820	112.11	96.7303	4.1775	8.345
10.845	112.08	96.7300	4.1774	8.310
10.870	112.05	96.7298	4.1774	8.272
10.895	112.02	96.7293	4.1774	8.237
10.920	111.99	96.7287	4.1774	8.205
10.945	111.96	96.7281	4.1774	8.172
10.970	111.93	96.7276	4.1773	8.139
10.995	111.91	96.7274	4.1773	8.106
11.020	111.89	96.7273	4.1773	8.074
11.045	111.86	96.7273	4.1773	8.043
11.070	111.84	96.7271	4.1773	8.012
11.095	111.82	96.7269	4.1773	7.982
11.120	111.80	96.7266	4.1773	7.953
11.145	111.78	96.7262	4.1773	7.926
11.170	111.77	96.7257	4.1773	7.901
11.195	111.75	96.7253	4.1772	7.876
11.220	111.74	96.7249	4.1772	7.853
11.245	111.73	96.7245	4.1772	7.828
11.270	111.71	96.7242	4.1772	7.806
11.295	111.70	96.7239	4.1772	7.784
11.320	111.70	96.7235	4.1772	7.763
11.345	111.69	96.7234	4.1772	7.743
11.370	111.68	96.7233	4.1772	7.724
11.395	111.68	96.7231	4.1771	7.707
11.420	111.68	96.7229	4.1771	7.691
11.445	111.67	96.7227	4.1771	7.675
11.470	111.67	96.7227	4.1771	7.657
11.495	111.67	96.7226	4.1771	7.641
11.520	111.67	96.7226	4.1771	7.626
11.545	111.67	96.7226	4.1771	7.615
11.570	111.68	96.7226	4.1771	7.603
11.595	111.68	96.7226	4.1771	7.589
11.620	111.69	96.7226	4.1771	7.576
[...]
158.028	948.90	1.1526	0.0498	65.754
158.037	948.90	1.1526	0.0498	65.771
158.045	948.90	1.1525	0.0498	65.788
158.053	948.90	1.1525	0.0498	65.804
158.062	948.90	1.1524	0.0498	65.819
158.070	948.90	1.1524	0.0498	65.834
158.078	948.90	1.1523	0.0498	65.849
158.087	948.91	1.1522	0.0498	65.863
158.095	948.91	1.1522	0.0498	65.876
158.103	948.91	1.1521	0.0498	65.890
158.112	948.91	1.1520	0.0498	65.904
158.120	948.91	1.1520	0.0497	65.916
158.128	948.91	1.1519	0.0497	65.928
158.137	948.91	1.1518	0.0497	65.940
158.145	948.91	1.1518	0.0497	65.952
158.153	948.91	1.1517	0.0497	65.964
158.162	948.91	1.1517	0.0497	65.974
158.170	948.91	1.1517	0.0497	65.984
158.178	948.91	1.1516	0.0497	65.994
158.187	948.91	1.1516	0.0497	66.004
158.195	948.91	1.1516	0.0497	66.014
158.203	948.91	1.1515	0.0497	66.025
158.212	948.92	1.1515	0.0497	66.037
158.220	948.92	1.1514	0.0497	66.048
158.228	948.92	1.1514	0.0497	66.059
158.237	948.92	1.1513	0.0497	66.070
158.245	948.92	1.1513	0.0497	66.081
158.253	948.92	1.1512	0.0497	66.091
158.262	948.92	1.1512	0.0497	66.100
158.270	948.92	1.1511	0.0497	66.108
158.278	948.92	1.1511	0.0497	66.116
158.287	948.92	1.1510	0.0497	66.123
158.295	948.92	1.1509	0.0497	66.130
158.303	948.92	1.1509	0.0497	66.137
158.312	948.92	1.1508	0.0497	66.144
158.320	948.92	1.1508	0.0497	66.150
158.328	948.92	1.1507	0.0497	66.157
158.337	948.93	1.1507	0.0497	66.165
158.345	948.93	1.1507	0.0497	66.173
158.353	948.93	1.1506	0.0497	66.180
158.362	948.93	1.1506	0.0497	66.189
158.370	948.93	1.1506	0.0497	66.198
158.378	948.93	1.1506	0.0497	66.206
158.387	948.93	1.1505	0.0497	66.215
158.395	948.93	1.1505	0.0497	66.224
158.403	948.93	1.1505	0.0497	66.233
158.412	948.93	1.1504	0.0497	66.242
158.420	948.93	1.1504	0.0497	66.251
158.428	948.93	1.1503	0.0497	66.261
158.437	948.93	1.1502	0.0497	66.271
158.445	948.93	1.1502	0.0497	66.281
158.453	948.93	1.1501	0.0497	66.291
158.462	948.93	1.1500	0.0497	66.301
158.470	948.93	1.1499	0.0497	66.311
158.478	948.93	1.1498	0.0497	66.321
158.487	948.94	1.1497	0.0497	66.331
158.495	948.94	1.1497	0.0496	66.340
158.503	948.94	1.1496	0.0496	66.349
158.512	948.94	1.1495	0.0496	66.358
158.520	948.94	1.1494	0.0496	66.367
158.528	948.94	1.1494	0.0496	66.376
158.537	948.94	1.1493	0.0496	66.385
158.545	948.94	1.1492	0.0496	66.395
158.553	948.94	1.1491	0.0496	66.406
158.562	948.94	1.1490	0.0496	66.416
158.570	948.94	1.1490	0.0496	66.427
158.578	948.94	1.1489	0.0496	66.438
158.587	948.94	1.1488	0.0496	66.449
158.595	948.94	1.1487	0.0496	66.459
158.603	948.94	1.1486	0.0496	66.469
158.612	948.94	1.1486	0.0496	66.478
158.620	948.94	1.1485	0.0496	66.488
158.628	948.94	1.1484	0.0496	66.495
158.637	948.95	1.1484	0.0496	66.501
158.645	948.95	1.1483	0.0496	66.508
158.653	948.95	1.1483	0.0496	66.515
158.662	948.95	1.1482	0.0496	66.522
158.670	948.95	1.1482	0.0496	66.529
158.678	948.95	1.1482	0.0496	66.536
158.687	948.95	1.1481	0.0496	66.545
158.695	948.95	1.1481	0.0496	66.554
158.703	948.95	1.1480	0.0496	66.564
158.712	948.95	1.1480	0.0496	66.574
158.720	948.95	1.1480	0.0496	66.585
158.728	948.95	1.1480	0.0496	66.595
158.737	948.95	1.1480	0.0496	66.606
158.745	948.95	1.1479	0.0496	66.617
158.753	948.95	1.1479	0.0496	66.630
158.762	948.95	1.1479	0.0496	66.641
158.770	948.95	1.1478	0.0496	66.652
158.778	948.95	1.1478	0.0496	66.662
158.787	948.95	1.1477	0.0496	66.672
158.795	948.95	1.1477	0.0496	66.681
158.803	948.95	1.1476	0.0496	66.690
158.812	948.95	1.1475	0.0496	66.699
158.820	948.95	1.1474	0.0496	66.708
158.828	948.96	1.1474	0.0496	66.716
158.837	948.96	1.1473	0.0495	66.724
158.845	948.96	1.1472	0.0495	66.733
158.853	948.96	1.1471	0.0495	66.741
158.862	948.96	1.1471	0.0495	66.749
158.870	948.96	1.1470	0.0495	66.757
158.878	948.96	1.1469	0.0495	66.765
158.887	948.96	1.1469	0.0495	66.774
158.895	948.96	1.1468	0.0495	66.784
158.903	948.96	1.1468	0.0495	66.794
158.912	948.96	1.1467	0.0495	66.803
158.920	948.96	1.1467	0.0495	66.813
158.928	948.96	1.1466	0.0495	66.823
158.937	948.96	1.1465	0.0495	66.833
158.945	948.96	1.1465	0.0495	66.844
158.953	948.96	1.1464	0.0495	66.854
158.962	948.96	1.1463	0.0495	66.866
158.970	948.96	1.1462	0.0495	66.876
158.978	948.96	1.1461	0.0495	66.886
158.987	948.96	1.1460	0.0495	66.895
158.995	948.96	1.1459	0.0495	66.904
159.003	948.96	1.1458	0.0495	66.913
159.012	948.96	1.1457	0.0495	66.922
159.020	948.96	1.1456	0.0495	66.931
159.028	948.96	1.1456	0.0495	66.940
159.037	948.96	1.1455	0.0495	66.949
159.045	948.96	1.1454	0.0495	66.959
159.053	948.96	1.1453	0.0495	66.970
159.062	948.97	1.1453	0.0495	66.982
159.070	948.97	1.1452	0.0495	66.993
159.078	948.97	1.1451	0.0495	67.004
159.087	948.97	1.1451	0.0495	67.015
159.095	948.97	1.1450	0.0495	67.025
159.103	948.97	1.1450	0.0494	67.036
159.112	948.97	1.1449	0.0494	67.047
159.120	948.97	1.1449	0.0494	67.059
159.128	948.97	1.1449	0.0494	67.070
159.137	948.97	1.1448	0.0494	67.080
159.145	948.97	1.1448	0.0494	67.089
159.153	948.97	1.1447	0.0494	67.098
159.162	948.97	1.1446	0.0494	67.108
159.170	948.97	1.1445	0.0494	67.117
159.178	948.97	1.1445	0.0494	67.126
159.187	948.97	1.1444	0.0494	67.134
159.195	948.97	1.1443	0.0494	67.142
159.203	948.97	1.1442	0.0494	67.148
159.212	948.97	1.1441	0.0494	67.153
159.220	948.97	1.1440	0.0494	67.158
159.228	948.97	1.1439	0.0494	67.163
159.237	948.97	1.1438	0.0494	67.168
159.245	948.98	1.1437	0.0494	67.174
159.253	948.98	1.1437	0.0494	67.179
159.262	948.98	1.1436	0.0494	67.185
159.270	948.98	1.1435	0.0494	67.190
159.278	948.98	1.1435	0.0494	67.195
159.287	948.98	1.1434	0.0494	67.201
159.295	948.98	1.1433	0.0494	67.206
159.303	948.98	1.1433	0.0494	67.211
159.312	948.98	1.1432	0.0494	67.216
159.320	948.98	1.1431	0.0494	67.222
159.328	948.98	1.1431	0.0494	67.227
159.337	948.98	1.1430	0.0494	67.232
159.345	948.98	1.1429	0.0494	67.237
159.353	948.98	1.1429	0.0494	67.243
159.362	948.98	1.1428	0.0494	67.248
159.370	948.98	1.1428	0.0494	67.254
159.378	948.98	1.1427	0.0493	67.261
159.387	948.98	1.1426	0.0493	67.268
159.395	948.98	1.1425	0.0493	67.275
159.403	948.98	1.1425	0.0493	67.281
159.412	948.98	1.1424	0.0493	67.287
159.420	948.98	1.1424	0.0493	67.294
159.428	948.98	1.1424	0.0493	67.301
159.437	948.98	1.1423	0.0493	67.308
159.445	948.98	1.1423	0.0493	67.315
159.453	948.98	1.1422	0.0493	67.322
159.462	948.98	1.1422	0.0493	67.327
159.470	948.99	1.1422	0.0493	67.333
159.478	948.99	1.1421	0.0493	67.338
159.487	948.99	1.1421	0.0493	67.344
159.495	948.99	1.1420	0.0493	67.350
159.503	948.99	1.1420	0.0493	67.356
159.512	948.99	1.1419	0.0493	67.363
159.520	948.99	1.1419	0.0493	67.370
159.528	948.99	1.1418	0.0493	67.378
159.537	948.99	1.1417	0.0493	67.387
159.545	948.99	1.1417	0.0493	67.395
159.553	948.99	1.1416	0.0493	67.405
159.562	948.99	1.1415	0.0493	67.415
159.570	948.99	1.1415	0.0493	67.424
159.578	948.99	1.1414	0.0493	67.435
159.587	948.99	1.1413	0.0493	67.445
159.595	948.99	1.1413	0.0493	67.454
159.603	948.99	1.1412	0.0493	67.463
159.612	948.99	1.1411	0.0493	67.472
159.620	948.99	1.1411	0.0493	67.480
159.628	948.99	1.1410	0.0493	67.488
159.637	948.99	1.1409	0.0493	67.496
159.645	948.99	1.1408	0.0493	67.503
159.653	948.99	1.1408	0.0493	67.511
159.662	948.99	1.1407	0.0493	67.517
159.670	948.99	1.1407	0.0493	67.523
159.678	948.99	1.1406	0.0493	67.530
159.687	948.99	1.1405	0.0493	67.536
159.695	948.99	1.1405	0.0493	67.542
159.703	948.99	1.1404	0.0493	67.549
159.712	948.99	1.1403	0.0492	67.556
159.720	948.99	1.1403	0.0492	67.563
159.728	948.99	1.1402	0.0492	67.570
159.737	948.99	1.1401	0.0492	67.579
159.745	948.99	1.1401	0.0492	67.587
159.753	949.00	1.1400	0.0492	67.595
159.762	949.00	1.1399	0.0492	67.603
159.770	949.00	1.1398	0.0492	67.611
159.778	949.00	1.1398	0.0492	67.619
159.787	949.00	1.1397	0.0492	67.627
159.795	949.00	1.1396	0.0492	67.633
159.803	949.00	1.1396	0.0492	67.640
159.812	949.00	1.1395	0.0492	67.645
159.820	949.00	1.1394	0.0492	67.650
159.828	949.00	1.1394	0.0492	67.655
159.837	949.00	1.1393	0.0492	67.660
159.845	949.00	1.1393	0.0492	67.665
159.853	949.00	1.1392	0.0492	67.671
159.862	949.00	1.1391	0.0492	67.678
159.870	949.00	1.1391	0.0492	67.687
159.878	949.00	1.1390	0.0492	67.696
159.887	949.00	1.1390	0.0492	67.705
159.895	949.00	1.1389	0.0492	67.714
159.903	949.00	1.1388	0.0492	67.724
159.912	949.00	1.1388	0.0492	67.734
159.920	949.00	1.1387	0.0492	67.744
159.928	949.00	1.1386	0.0492	67.754
159.937	949.00	1.1385	0.0492	67.764
159.945	949.00	1.1385	0.0492	67.772
159.953	949.00	1.1384	0.0492	67.781
159.962	949.00	1.1383	0.0492	67.790
159.970	949.00	1.1382	0.0492	67.798
159.978	949.00	1.1381	0.0492	67.807
159.987	949.00	1.1380	0.0491	67.814
159.995	949.00	1.1379	0.0491	67.822
160.003	949.00	1.1378	0.0491	67.830
160.012	949.00	1.1377	0.0491	67.837
160.020	949.00	1.1376	0.0491	67.844
160.028	949.01	1.1375	0.0491	67.850
160.037	949.01	1.1374	0.0491	67.856
160.045	949.01	1.1372	0.0491	67.861
160.053	949.01	1.1371	0.0491	67.865
160.062	949.01	1.1370	0.0491	67.870
160.070	949.01	1.1369	0.0491	67.876
160.078	949.01	1.1368	0.0491	67.882
160.087	949.01	1.1367	0.0491	67.888
160.095	949.01	1.1365	0.0491	67.894
160.103	949.01	1.1365	0.0491	67.899
160.112	949.01	1.1364	0.0491	67.906
160.120	949.01	1.1363	0.0491	67.913
160.128	949.01	1.1363	0.0491	67.920
160.137	949.01	1.1362	0.0491	67.927
160.145	949.01	1.1361	0.0491	67.934
160.153	949.01	1.1361	0.0491	67.941
160.162	949.01	1.1360	0.0491	67.947
160.170	949.01	1.1359	0.0491	67.953
160.178	949.01	1.1358	0.0491	67.960
160.187	949.01	1.1358	0.0490	67.966
160.195	949.01	1.1357	0.0490	67.972
160.203	949.01	1.1356	0.0490	67.978
160.212	949.01	1.1355	0.0490	67.983
160.220	949.01	1.1354	0.0490	67.989
160.228	949.01	1.1354	0.0490	67.995
160.237	949.01	1.1353	0.0490	68.001
160.245	949.01	1.1352	0.0490	68.006
160.253	949.01	1.1352	0.0490	68.012
160.262	949.01	1.1351	0.0490	68.018
160.270	949.01	1.1351	0.0490	68.023
160.278	949.01	1.1350	0.0490	68.028
160.287	949.01	1.1349	0.0490	68.034
160.295	949.02	1.1348	0.0490	68.039
160.303	949.02	1.1348	0.0490	68.046
160.312	949.02	1.1347	0.0490	68.052
160.320	949.02	1.1346	0.0490	68.058
160.328	949.02	1.1345	0.0490	68.065
160.337	949.02	1.1344	0.0490	68.072
160.345	949.02	1.1344	0.0490	68.079
160.353	949.02	1.1343	0.0490	68.087
160.362	949.02	1.1342	0.0490	68.095
160.370	949.02	1.1341	0.0490	68.104
160.378	949.02	1.1340	0.0490	68.114
160.387	949.02	1.1339	0.0490	68.123
160.395	949.02	1.1338	0.0490	68.131
160.403	949.02	1.1338	0.0490	68.139
160.412	949.02	1.1337	0.0490	68.146
160.420	949.02	1.1336	0.0490	68.153
160.428	949.02	1.1335	0.0490	68.161
160.437	949.02	1.1335	0.0490	68.168
160.445	949.02	1.1334	0.0489	68.175
160.453	949.02	1.1333	0.0489	68.181
160.462	949.02	1.1333	0.0489	68.186
160.470	949.02	1.1332	0.0489	68.190
160.478	949.02	1.1332	0.0489	68.195
160.487	949.02	1.1331	0.0489	68.200
160.495	949.02	1.1331	0.0489	68.205
160.503	949.02	1.1330	0.0489	68.210
160.512	949.02	1.1330	0.0489	68.215
160.520	949.02	1.1329	0.0489	68.220
160.528	949.02	1.1329	0.0489	68.224
160.537	949.02	1.1329	0.0489	68.229
160.545	949.02	1.1328	0.0489	68.235
160.553	949.02	1.1328	0.0489	68.240
160.562	949.02	1.1327	0.0489	68.246
160.570	949.02	1.1326	0.0489	68.252
160.578	949.02	1.1325	0.0489	68.258
160.587	949.02	1.1325	0.0489	68.264
160.595	949.02	1.1324	0.0489	68.270
160.603	949.02	1.1323	0.0489	68.277
160.612	949.02	1.1322	0.0489	68.284
160.620	949.02	1.1321	0.0489	68.290
160.628	949.02	1.1320	0.0489	68.296
160.637	949.02	1.1320	0.0489	68.302
160.645	949.02	1.1319	0.0489	68.309
160.653	949.03	1.1318	0.0489	68.315
160.662	949.03	1.1317	0.0489	68.321
160.670	949.03	1.1316	0.0489	68.327
160.678	949.03	1.1315	0.0489	68.332
160.687	949.03	1.1314	0.0489	68.337
160.695	949.03	1.1313	0.0489	68.341
160.703	949.03	1.1312	0.0489	68.346
160.712	949.03	1.1311	0.0488	68.351
160.720	949.03	1.1310	0.0488	68.355
160.728	949.03	1.1309	0.0488	68.359
160.737	949.03	1.1308	0.0488	68.362
160.745	949.03	1.1308	0.0488	68.365
160.753	949.03	1.1307	0.0488	68.369
160.762	949.03	1.1307	0.0488	68.372
160.770	949.03	1.1306	0.0488	68.376
160.778	949.03	1.1306	0.0488	68.380
160.787	949.03	1.1305	0.0488	68.384
160.795	949.03	1.1304	0.0488	68.388
160.803	949.03	1.1304	0.0488	68.392
160.812	949.03	1.1303	0.0488	68.397
160.820	949.03	1.1302	0.0488	68.402
160.828	949.03	1.1302	0.0488	68.406
160.837	949.03	1.1301	0.0488	68.411
160.845	949.03	1.1300	0.0488	68.415
160.853	949.03	1.1299	0.0488	68.420
160.862	949.03	1.1299	0.0488	68.424
160.870	949.03	1.1298	0.0488	68.429
160.878	949.03	1.1297	0.0488	68.433
160.887	949.03	1.1297	0.0488	68.437
160.895	949.03	1.1296	0.0488	68.441
160.903	949.03	1.1296	0.0488	68.445
160.912	949.03	1.1295	0.0488	68.449
160.920	949.03	1.1295	0.0488	68.453
160.928	949.03	1.1294	0.0488	68.457
160.937	949.03	1.1294	0.0488	68.461
160.945	949.03	1.1293	0.0488	68.465
160.953	949.03	1.1293	0.0488	68.470
160.962	949.03	1.1292	0.0488	68.475
160.970	949.03	1.1292	0.0488	68.480
160.978	949.03	1.1291	0.0488	68.485
160.987	949.03	1.1291	0.0488	68.490
160.995	949.03	1.1290	0.0488	68.495
161.003	949.03	1.1289	0.0488	68.500
161.012	949.03	1.1289	0.0488	68.506
161.020	949.04	1.1288	0.0487	68.512
161.028	949.04	1.1287	0.0487	68.517
161.037	949.04	1.1286	0.0487	68.522
161.045	949.04	1.1285	0.0487	68.527
161.053	949.04	1.1285	0.0487	68.531
161.062	949.04	1.1284	0.0487	68.536
161.070	949.04	1.1283	0.0487	68.541
161.078	949.04	1.1282	0.0487	68.546
161.087	949.04	1.1281	0.0487	68.552
161.095	949.04	1.1280	0.0487	68.557
161.103	949.04	1.1279	0.0487	68.562
161.112	949.04	1.1278	0.0487	68.567
161.120	949.04	1.1277	0.0487	68.573
161.128	949.04	1.1277	0.0487	68.579
161.137	949.04	1.1276	0.0487	68.585
161.145	949.04	1.1276	0.0487	68.592
161.153	949.04	1.1275	0.0487	68.598
161.162	949.04	1.1275	0.0487	68.604
161.170	949.04	1.1275	0.0487	68.610
161.178	949.04	1.1274	0.0487	68.616
161.187	949.04	1.1274	0.0487	68.621
161.195	949.04	1.1273	0.0487	68.627
161.203	949.04	1.1273	0.0487	68.633
161.212	949.04	1.1272	0.0487	68.639
161.220	949.04	1.1272	0.0487	68.645
161.228	949.04	1.1271	0.0487	68.652
161.237	949.04	1.1270	0.0487	68.659
161.245	949.04	1.1270	0.0487	68.666
161.253	949.04	1.1269	0.0487	68.673
161.262	949.04	1.1268	0.0487	68.681
161.270	949.04	1.1268	0.0487	68.690
161.278	949.04	1.1267	0.0487	68.698
161.287	949.04	1.1266	0.0487	68.706
161.295	949.04	1.1266	0.0487	68.713
161.303	949.04	1.1265	0.0487	68.719
161.312	949.04	1.1265	0.0486	68.725
161.320	949.04	1.1264	0.0486	68.731
161.328	949.04	1.1263	0.0486	68.736
161.337	949.04	1.1263	0.0486	68.741
161.345	949.04	1.1262	0.0486	68.746
161.353	949.04	1.1262	0.0486	68.750
161.362	949.04	1.1261	0.0486	68.755
161.370	949.04	1.1261	0.0486	68.760
161.378	949.04	1.1260	0.0486	68.764
161.387	949.04	1.1260	0.0486	68.769
161.395	949.04	1.1260	0.0486	68.774
161.403	949.04	1.1259	0.0486	68.778
161.412	949.04	1.1259	0.0486	68.783
161.420	949.04	1.1258	0.0486	68.788
161.428	949.04	1.1258	0.0486	68.793
161.437	949.04	1.1257	0.0486	68.799
161.445	949.04	1.1257	0.0486	68.803
161.453	949.04	1.1256	0.0486	68.808
161.462	949.04	1.1255	0.0486	68.813
161.470	949.04	1.1254	0.0486	68.818
161.478	949.04	1.1253	0.0486	68.823
161.487	949.04	1.1252	0.0486	68.828
161.495	949.04	1.1252	0.0486	68.833
161.503	949.05	1.1251	0.0486	68.839
161.512	949.05	1.1250	0.0486	68.845
161.520	949.05	1.1249	0.0486	68.851
161.528	949.05	1.1248	0.0486	68.857
161.537	949.05	1.1247	0.0486	68.862
161.545	949.05	1.1247	0.0486	68.868
161.553	949.05	1.1246	0.0486	68.873
161.562	949.05	1.1245	0.0486	68.877
161.570	949.05	1.1245	0.0486	68.882
161.578	949.05	1.1244	0.0486	68.887
161.587	949.05	1.1244	0.0486	68.891
161.595	949.05	1.1243	0.0486	68.895
161.603	949.05	1.1243	0.0486	68.899
161.612	949.05	1.1242	0.0486	68.904
161.620	949.05	1.1242	0.0486	68.909
161.628	949.05	1.1241	0.0485	68.915
161.637	949.05	1.1241	0.0485	68.921
161.645	949.05	1.1240	0.0485	68.927
161.653	949.05	1.1240	0.0485	68.933
161.662	949.05	1.1239	0.0485	68.939
161.670	949.05	1.1239	0.0485	68.944
161.678	949.05	1.1238	0.0485	68.950
161.687	949.05	1.1237	0.0485	68.955
161.695	949.05	1.1237	0.0485	68.960
161.703	949.05	1.1236	0.0485	68.964
161.712	949.05	1.1235	0.0485	68.969
161.720	949.05	1.1234	0.0485	68.973
161.728	949.05	1.1233	0.0485	68.977
161.737	949.05	1.1232	0.0485	68.981
161.745	949.05	1.1231	0.0485	68.986
161.753	949.05	1.1230	0.0485	68.990
161.762	949.05	1.1229	0.0485	68.995
161.770	949.05	1.1229	0.0485	69.000
161.778	949.05	1.1228	0.0485	69.005
161.787	949.05	1.1227	0.0485	69.010
161.795	949.05	1.1226	0.0485	69.015
161.803	949.05	1.1226	0.0485	69.021
161.812	949.05	1.1225	0.0485	69.026
161.820	949.05	1.1224	0.0485	69.031
161.828	949.05	1.1224	0.0485	69.036
161.837	949.05	1.1223	0.0485	69.040
161.845	949.05	1.1222	0.0485	69.044
161.853	949.05	1.1221	0.0485	69.047
161.862	949.06	1.1220	0.0485	69.050
161.870	949.06	1.1220	0.0485	69.053
161.878	949.06	1.1219	0.0485	69.055
161.887	949.06	1.1218	0.0484	69.058
161.895	949.06	1.1217	0.0484	69.061
161.903	949.06	1.1217	0.0484	69.064
161.912	949.06	1.1216	0.0484	69.068
161.920	949.06	1.1215	0.0484	69.072
161.928	949.06	1.1214	0.0484	69.077
161.937	949.06	1.1214	0.0484	69.082
161.945	949.06	1.1213	0.0484	69.087
161.953	949.06	1.1212	0.0484	69.093
161.962	949.06	1.1212	0.0484	69.098
161.970	949.06	1.1211	0.0484	69.103
161.978	949.06	1.1211	0.0484	69.108
161.987	949.06	1.1210	0.0484	69.113
161.995	949.06	1.1210	0.0484	69.118
162.003	949.06	1.1209	0.0484	69.122
162.012	949.06	1.1209	0.0484	69.126
162.020	949.06	1.1208	0.0484	69.131
162.028	949.06	1.1208	0.0484	69.136
162.037	949.06	1.1207	0.0484	69.142
162.045	949.06	1.1206	0.0484	69.148
162.053	949.06	1.1206	0.0484	69.154
162.062	949.06	1.1205	0.0484	69.159
162.070	949.06	1.1204	0.0484	69.165
162.078	949.06	1.1204	0.0484	69.170
162.087	949.06	1.1203	0.0484	69.176
162.095	949.06	1.1202	0.0484	69.180
162.103	949.06	1.1201	0.0484	69.185
162.112	949.06	1.1201	0.0484	69.190
162.120	949.06	1.1200	0.0484	69.194
162.128	949.06	1.1199	0.0484	69.197
162.137	949.06	1.1198	0.0484	69.201
162.145	949.06	1.1197	0.0484	69.204
162.153	949.06	1.1197	0.0484	69.207
162.162	949.06	1.1196	0.0484	69.211
162.170	949.06	1.1195	0.0483	69.216
162.178	949.06	1.1194	0.0483	69.221
162.187	949.06	1.1194	0.0483	69.225
162.195	949.06	1.1193	0.0483	69.230
162.203	949.06	1.1192	0.0483	69.235
162.212	949.06	1.1191	0.0483	69.239
162.220	949.06	1.1190	0.0483	69.244
162.228	949.06	1.1189	0.0483	69.248
162.237	949.06	1.1189	0.0483	69.253
162.245	949.06	1.1188	0.0483	69.257
162.253	949.06	1.1187	0.0483	69.260
162.262	949.06	1.1187	0.0483	69.263
162.270	949.06	1.1186	0.0483	69.266
162.278	949.06	1.1185	0.0483	69.269
162.287	949.06	1.1185	0.0483	69.271
162.295	949.06	1.1184	0.0483	69.273
162.303	949.06	1.1184	0.0483	69.276
162.312	949.06	1.1183	0.0483	69.278
162.320	949.06	1.1182	0.0483	69.280
162.328	949.06	1.1181	0.0483	69.282
162.337	949.06	1.1181	0.0483	69.285
162.345	949.06	1.1180	0.0483	69.287
162.353	949.06	1.1180	0.0483	69.289
162.362	949.06	1.1179	0.0483	69.292
162.370	949.06	1.1178	0.0483	69.295
162.378	949.06	1.1178	0.0483	69.298
162.387	949.07	1.1177	0.0483	69.302
162.395	949.07	1.1176	0.0483	69.305
162.403	949.07	1.1176	0.0483	69.309
162.412	949.07	1.1175	0.0483	69.313
162.420	949.07	1.1175	0.0483	69.318
162.428	949.07	1.1174	0.0483	69.323
162.437	949.07	1.1173	0.0483	69.327
162.445	949.07	1.1173	0.0483	69.332
162.453	949.07	1.1172	0.0482	69.336
162.462	949.07	1.1171	0.0482	69.340
162.470	949.07	1.1171	0.0482	69.344
162.478	949.07	1.1170	0.0482	69.348
162.487	949.07	1.1169	0.0482	69.352
162.495	949.07	1.1168	0.0482	69.356
162.503	949.07	1.1168	0.0482	69.359
162.512	949.07	1.1167	0.0482	69.362
162.520	949.07	1.1166	0.0482	69.366
162.528	949.07	1.1165	0.0482	69.369
162.537	949.07	1.1164	0.0482	69.373
162.545	949.07	1.1163	0.0482	69.377
162.553	949.07	1.1162	0.0482	69.380
162.562	949.07	1.1161	0.0482	69.384
162.570	949.07	1.1160	0.0482	69.387
162.578	949.07	1.1160	0.0482	69.391
162.587	949.07	1.1159	0.0482	69.394
162.595	949.07	1.1158	0.0482	69.397
162.603	949.07	1.1157	0.0482	69.400
162.612	949.07	1.1156	0.0482	69.404
162.620	949.07	1.1155	0.0482	69.408
162.628		1.1154	0.0482
162.637		1.1153	0.0482
162.645		1.1152	0.0482
162.653		1.1151	0.0482
162.662		1.1150	0.0482