File: PSO Kinetics/data/softwood-20Kmin_3.txt
Filename	softwood-20Kmin_3
Instrument name	0650-0369 (192.168.1.2)
Operator	ca527
rundate	1/9/2023
Sample name	softwood-20Kmin_3
proceduresegments	Select Gas: Gas 1 ; Ramp 10.00 °C/min to 110.00 °C; Isothermal 30.0 min; Ramp 20.00 °C/min to 900.00 °C; Isothermal 30.0 min; Select Gas: Gas 2 ; Ramp 10.00 °C/min to 950.00 °C; Isothermal 10.0 min; Data Off ; Equilibrate 30.00 °C
[step]
Ramp 10.00 °C/min to 110.00 °C
Time	Temperature	Weight	Weight	Heat Flow
min	°C	%	mg	mW
0.003		100.0294	5.2453
0.012		100.0661	5.2472
0.020		100.0998	5.2490
0.028		100.1305	5.2506
0.037		100.1581	5.2521
0.045	21.97	100.1812	5.2533	-28.719
0.053	22.01	100.1986	5.2542	-28.655
0.062	22.05	100.2098	5.2548	-28.596
0.070	22.09	100.2157	5.2551	-28.540
0.078	22.13	100.2177	5.2552	-28.485
0.087	22.17	100.2167	5.2551	-28.429
0.095	22.21	100.2149	5.2550	-28.374
0.103	22.25	100.2128	5.2549	-28.320
0.112	22.29	100.2107	5.2548	-28.266
0.120	22.33	100.2086	5.2547	-28.212
0.128	22.37	100.2065	5.2546	-28.159
0.137	22.41	100.2044	5.2545	-28.106
0.145	22.45	100.2023	5.2544	-28.053
0.153	22.49	100.2003	5.2543	-28.001
0.162	22.53	100.1982	5.2542	-27.949
0.170	22.57	100.1962	5.2541	-27.898
0.178	22.61	100.1942	5.2540	-27.849
0.187	22.64	100.1922	5.2539	-27.799
0.195	22.68	100.1902	5.2537	-27.749
0.203	22.72	100.1883	5.2536	-27.699
0.212	22.76	100.1863	5.2535	-27.650
0.220	22.80	100.1844	5.2534	-27.602
0.228	22.84	100.1825	5.2533	-27.552
0.237	22.87	100.1806	5.2532	-27.504
0.245	22.91	100.1788	5.2531	-27.455
0.253	22.95	100.1769	5.2531	-27.407
0.262	22.99	100.1750	5.2530	-27.359
0.270	23.02	100.1731	5.2529	-27.312
0.278	23.06	100.1713	5.2528	-27.264
0.287	23.10	100.1694	5.2527	-27.217
0.295	23.14	100.1674	5.2526	-27.172
0.303	23.17	100.1655	5.2525	-27.125
0.312	23.21	100.1635	5.2523	-27.081
0.320	23.25	100.1615	5.2522	-27.039
0.328	23.28	100.1595	5.2521	-26.995
0.337	23.32	100.1574	5.2520	-26.951
0.345	23.36	100.1554	5.2519	-26.908
0.353	23.39	100.1532	5.2518	-26.865
0.362	23.43	100.1511	5.2517	-26.823
0.370	23.47	100.1489	5.2516	-26.782
0.378	23.50	100.1467	5.2515	-26.741
0.387	23.54	100.1445	5.2514	-26.700
0.395	23.57	100.1423	5.2512	-26.659
0.403	23.61	100.1400	5.2511	-26.617
0.412	23.65	100.1377	5.2510	-26.577
0.420	23.68	100.1353	5.2509	-26.537
0.428	23.72	100.1330	5.2507	-26.498
0.437	23.76	100.1306	5.2506	-26.460
0.445	23.79	100.1281	5.2505	-26.422
0.453	23.83	100.1257	5.2504	-26.383
0.462	23.87	100.1231	5.2502	-26.345
0.470	23.91	100.1206	5.2501	-26.308
0.478	23.94	100.1179	5.2500	-26.270
0.487	23.98	100.1152	5.2498	-26.234
0.495	24.02	100.1125	5.2497	-26.199
0.503	24.06	100.1097	5.2495	-26.164
0.512	24.10	100.1068	5.2494	-26.129
0.520	24.14	100.1039	5.2492	-26.094
0.528	24.17	100.1010	5.2491	-26.061
0.537	24.21	100.0980	5.2489	-26.027
0.545	24.25	100.0949	5.2488	-25.994
0.553	24.29	100.0919	5.2486	-25.962
0.562	24.33	100.0887	5.2484	-25.932
0.570	24.38	100.0856	5.2483	-25.901
0.578	24.42	100.0824	5.2481	-25.870
0.587	24.46	100.0792	5.2479	-25.839
0.595	24.50	100.0759	5.2478	-25.808
0.603	24.54	100.0726	5.2476	-25.779
0.612	24.58	100.0693	5.2474	-25.750
0.620	24.63	100.0660	5.2472	-25.723
0.628	24.67	100.0626	5.2471	-25.695
0.637	24.71	100.0592	5.2469	-25.668
0.645	24.76	100.0558	5.2467	-25.641
0.653	24.80	100.0525	5.2465	-25.613
0.662	24.84	100.0491	5.2463	-25.586
0.670	24.89	100.0457	5.2462	-25.560
0.678	24.93	100.0423	5.2460	-25.535
0.687	24.98	100.0388	5.2458	-25.509
0.695	25.02	100.0354	5.2456	-25.484
0.703	25.07	100.0320	5.2455	-25.458
0.712	25.12	100.0287	5.2453	-25.433
0.720	25.16	100.0253	5.2451	-25.408
0.728	25.21	100.0219	5.2449	-25.383
0.737	25.26	100.0186	5.2447	-25.358
0.745	25.31	100.0153	5.2446	-25.335
0.753	25.36	100.0120	5.2444	-25.311
0.762	25.40	100.0088	5.2442	-25.287
0.770	25.45	100.0056	5.2441	-25.262
0.778	25.50	100.0024	5.2439	-25.238
0.787	25.55	99.9992	5.2437	-25.215
0.795	25.60	99.9962	5.2436	-25.191
0.803	25.65	99.9931	5.2434	-25.168
0.812	25.71	99.9901	5.2433	-25.145
0.820	25.76	99.9871	5.2431	-25.122
0.828	25.81	99.9842	5.2429	-25.098
0.837	25.86	99.9813	5.2428	-25.075
0.845	25.91	99.9785	5.2426	-25.054
0.853	25.97	99.9757	5.2425	-25.031
0.862	26.02	99.9730	5.2424	-25.009
0.870	26.07	99.9703	5.2422	-24.985
0.878	26.13	99.9676	5.2421	-24.962
0.887	26.18	99.9650	5.2419	-24.939
0.895	26.24	99.9624	5.2418	-24.914
0.903	26.30	99.9599	5.2417	-24.891
0.912	26.35	99.9575	5.2415	-24.868
0.920	26.41	99.9550	5.2414	-24.844
0.928	26.47	99.9527	5.2413	-24.817
0.937	26.52	99.9504	5.2412	-24.793
0.945	26.58	99.9481	5.2411	-24.768
0.953	26.64	99.9459	5.2409	-24.743
0.962	26.70	99.9437	5.2408	-24.717
0.970	26.76	99.9416	5.2407	-24.690
0.978	26.82	99.9395	5.2406	-24.665
0.987	26.88	99.9374	5.2405	-24.637
0.995	26.94	99.9354	5.2404	-24.609
1.003	27.00	99.9334	5.2403	-24.580
1.012	27.06	99.9314	5.2402	-24.552
1.020	27.12	99.9295	5.2401	-24.523
1.028	27.18	99.9276	5.2400	-24.493
1.037	27.25	99.9257	5.2399	-24.463
1.045	27.31	99.9238	5.2398	-24.434
1.053	27.37	99.9219	5.2397	-24.403
1.062	27.44	99.9201	5.2396	-24.372
1.070	27.50	99.9183	5.2395	-24.342
1.078	27.57	99.9166	5.2394	-24.310
1.087	27.63	99.9148	5.2393	-24.279
1.095	27.70	99.9131	5.2392	-24.247
1.103	27.76	99.9114	5.2391	-24.214
1.112	27.83	99.9097	5.2390	-24.180
1.120	27.90	99.9080	5.2389	-24.146
1.128	27.96	99.9063	5.2389	-24.111
1.137	28.03	99.9046	5.2388	-24.076
1.145	28.10	99.9029	5.2387	-24.039
1.153	28.17	99.9012	5.2386	-24.003
1.162	28.24	99.8995	5.2385	-23.966
1.170	28.30	99.8978	5.2384	-23.927
1.178	28.37	99.8961	5.2383	-23.888
1.187	28.44	99.8945	5.2382	-23.850
1.195	28.51	99.8928	5.2382	-23.810
1.203	28.59	99.8911	5.2381	-23.770
1.212	28.66	99.8894	5.2380	-23.730
1.220	28.73	99.8877	5.2379	-23.688
1.228	28.80	99.8859	5.2378	-23.647
1.237	28.87	99.8842	5.2377	-23.604
1.245	28.95	99.8825	5.2376	-23.562
1.253	29.02	99.8807	5.2375	-23.519
1.262	29.09	99.8789	5.2374	-23.475
1.270	29.17	99.8771	5.2373	-23.430
1.278	29.24	99.8753	5.2372	-23.385
1.287	29.32	99.8734	5.2371	-23.340
1.295	29.39	99.8716	5.2370	-23.293
1.303	29.47	99.8697	5.2369	-23.246
1.312	29.54	99.8678	5.2368	-23.199
1.320	29.62	99.8659	5.2367	-23.151
1.328	29.70	99.8640	5.2366	-23.102
1.337	29.77	99.8620	5.2365	-23.052
1.345	29.85	99.8601	5.2364	-23.003
1.353	29.93	99.8581	5.2363	-22.954
1.362	30.00	99.8562	5.2362	-22.903
1.370	30.08	99.8542	5.2361	-22.851
1.378	30.16	99.8521	5.2360	-22.800
1.387	30.24	99.8501	5.2359	-22.747
1.395	30.32	99.8480	5.2358	-22.695
1.403	30.40	99.8459	5.2357	-22.641
1.412	30.48	99.8439	5.2356	-22.588
1.420	30.56	99.8417	5.2355	-22.535
1.428	30.64	99.8396	5.2354	-22.479
1.437	30.72	99.8374	5.2352	-22.423
1.445	30.80	99.8352	5.2351	-22.366
1.453	30.88	99.8330	5.2350	-22.310
1.462	30.96	99.8308	5.2349	-22.253
1.470	31.04	99.8285	5.2348	-22.195
1.478	31.13	99.8262	5.2347	-22.137
1.487	31.21	99.8239	5.2345	-22.079
1.495	31.29	99.8216	5.2344	-22.020
1.503	31.38	99.8192	5.2343	-21.960
1.512	31.46	99.8168	5.2342	-21.901
1.520	31.54	99.8144	5.2340	-21.841
1.528	31.62	99.8120	5.2339	-21.781
1.537	31.71	99.8095	5.2338	-21.719
1.545	31.79	99.8070	5.2337	-21.659
1.553	31.88	99.8046	5.2335	-21.597
1.562	31.96	99.8020	5.2334	-21.535
1.570	32.05	99.7995	5.2333	-21.472
1.578	32.13	99.7970	5.2331	-21.409
1.587	32.22	99.7944	5.2330	-21.345
1.595	32.30	99.7918	5.2329	-21.281
1.603	32.39	99.7892	5.2327	-21.217
1.612	32.48	99.7865	5.2326	-21.152
1.620	32.56	99.7839	5.2324	-21.088
1.628	32.65	99.7812	5.2323	-21.023
1.637	32.74	99.7785	5.2322	-20.957
1.645	32.82	99.7758	5.2320	-20.892
1.653	32.91	99.7730	5.2319	-20.825
1.662	33.00	99.7703	5.2317	-20.758
1.670	33.09	99.7675	5.2316	-20.691
1.678	33.17	99.7648	5.2314	-20.625
1.687	33.26	99.7620	5.2313	-20.557
1.695	33.35	99.7592	5.2311	-20.489
1.703	33.44	99.7564	5.2310	-20.422
1.712	33.53	99.7536	5.2309	-20.353
1.720	33.62	99.7508	5.2307	-20.284
1.728	33.71	99.7480	5.2306	-20.215
1.737	33.80	99.7452	5.2304	-20.147
1.745	33.89	99.7423	5.2303	-20.079
1.753	33.98	99.7394	5.2301	-20.010
1.762	34.06	99.7365	5.2300	-19.940
1.770	34.15	99.7336	5.2298	-19.872
1.778	34.25	99.7307	5.2297	-19.801
1.787	34.33	99.7277	5.2295	-19.732
1.795	34.42	99.7247	5.2293	-19.662
1.803	34.52	99.7217	5.2292	-19.591
1.812	34.61	99.7187	5.2290	-19.521
1.820	34.70	99.7156	5.2289	-19.450
1.828	34.79	99.7125	5.2287	-19.379
1.837	34.88	99.7094	5.2285	-19.308
1.845	34.97	99.7063	5.2284	-19.236
1.853	35.06	99.7032	5.2282	-19.165
1.862	35.15	99.7000	5.2280	-19.092
1.870	35.24	99.6968	5.2279	-19.020
1.878	35.34	99.6936	5.2277	-18.948
1.887	35.43	99.6904	5.2275	-18.875
1.895	35.52	99.6871	5.2274	-18.803
1.903	35.61	99.6839	5.2272	-18.729
1.912	35.71	99.6806	5.2270	-18.656
1.920	35.80	99.6774	5.2269	-18.583
1.928	35.89	99.6741	5.2267	-18.510
1.937	35.98	99.6708	5.2265	-18.436
1.945	36.08	99.6675	5.2263	-18.363
1.953	36.17	99.6642	5.2262	-18.289
1.962	36.26	99.6609	5.2260	-18.214
1.970	36.35	99.6576	5.2258	-18.141
1.978	36.45	99.6542	5.2256	-18.067
1.987	36.54	99.6509	5.2255	-17.994
1.995	36.63	99.6475	5.2253	-17.920
2.003	36.72	99.6441	5.2251	-17.846
2.012	36.82	99.6407	5.2249	-17.771
2.020	36.91	99.6372	5.2248	-17.697
2.028	37.00	99.6338	5.2246	-17.624
2.037	37.10	99.6303	5.2244	-17.550
2.045	37.19	99.6268	5.2242	-17.475
2.053	37.29	99.6233	5.2240	-17.400
2.062	37.38	99.6197	5.2238	-17.325
2.070	37.47	99.6162	5.2236	-17.251
2.078	37.57	99.6126	5.2235	-17.176
2.087	37.66	99.6090	5.2233	-17.101
2.095	37.75	99.6054	5.2231	-17.026
2.103	37.85	99.6018	5.2229	-16.952
2.112	37.94	99.5981	5.2227	-16.878
2.120	38.04	99.5945	5.2225	-16.805
2.128	38.13	99.5908	5.2223	-16.730
2.137	38.22	99.5872	5.2221	-16.656
2.145	38.32	99.5835	5.2219	-16.581
2.153	38.41	99.5798	5.2217	-16.506
2.162	38.50	99.5761	5.2215	-16.431
2.170	38.60	99.5723	5.2213	-16.357
2.178	38.69	99.5686	5.2212	-16.283
2.187	38.79	99.5648	5.2210	-16.208
2.195	38.88	99.5611	5.2208	-16.132
2.203	38.98	99.5573	5.2206	-16.056
2.212	39.07	99.5535	5.2204	-15.983
2.220	39.16	99.5497	5.2202	-15.908
2.228	39.26	99.5459	5.2200	-15.834
2.237	39.35	99.5421	5.2198	-15.759
2.245	39.45	99.5382	5.2196	-15.685
2.253	39.54	99.5343	5.2194	-15.610
2.262	39.64	99.5304	5.2192	-15.535
2.270	39.73	99.5265	5.2189	-15.459
2.278	39.82	99.5226	5.2187	-15.384
2.287	39.92	99.5187	5.2185	-15.308
2.295	40.01	99.5147	5.2183	-15.233
2.303	40.11	99.5107	5.2181	-15.159
2.312	40.20	99.5067	5.2179	-15.085
2.320	40.30	99.5027	5.2177	-15.011
2.328	40.39	99.4987	5.2175	-14.937
2.337	40.48	99.4947	5.2173	-14.863
2.345	40.58	99.4906	5.2171	-14.790
2.353	40.67	99.4865	5.2169	-14.717
2.362	40.77	99.4825	5.2166	-14.645
2.370	40.86	99.4784	5.2164	-14.574
2.378	40.95	99.4743	5.2162	-14.502
2.387	41.05	99.4701	5.2160	-14.429
2.395	41.14	99.4660	5.2158	-14.355
2.403	41.24	99.4618	5.2156	-14.283
2.412	41.33	99.4577	5.2153	-14.211
2.420	41.42	99.4535	5.2151	-14.139
2.428	41.52	99.4493	5.2149	-14.066
2.437	41.61	99.4450	5.2147	-13.993
2.445	41.70	99.4408	5.2145	-13.920
2.453	41.80	99.4365	5.2142	-13.847
2.462	41.89	99.4323	5.2140	-13.775
2.470	41.99	99.4280	5.2138	-13.702
2.478	42.08	99.4237	5.2136	-13.630
2.487	42.17	99.4193	5.2133	-13.558
2.495	42.27	99.4150	5.2131	-13.486
2.503	42.36	99.4107	5.2129	-13.414
2.512	42.45	99.4063	5.2126	-13.342
2.520	42.55	99.4019	5.2124	-13.271
2.528	42.64	99.3975	5.2122	-13.199
2.537	42.74	99.3931	5.2120	-13.128
2.545	42.83	99.3887	5.2117	-13.056
2.553	42.92	99.3843	5.2115	-12.986
2.562	43.02	99.3798	5.2113	-12.915
2.570	43.11	99.3753	5.2110	-12.845
2.578	43.20	99.3708	5.2108	-12.774
2.587	43.30	99.3663	5.2105	-12.704
2.595	43.39	99.3617	5.2103	-12.633
2.603	43.48	99.3571	5.2101	-12.562
2.612	43.58	99.3526	5.2098	-12.491
2.620	43.67	99.3480	5.2096	-12.420
2.628	43.76	99.3433	5.2093	-12.348
2.637	43.86	99.3387	5.2091	-12.277
2.645	43.95	99.3340	5.2089	-12.205
2.653	44.04	99.3294	5.2086	-12.135
2.662	44.13	99.3247	5.2084	-12.064
2.670	44.23	99.3200	5.2081	-11.995
2.678	44.32	99.3153	5.2079	-11.926
2.687	44.41	99.3106	5.2076	-11.856
2.695	44.50	99.3058	5.2074	-11.787
2.703	44.60	99.3011	5.2071	-11.719
2.712	44.69	99.2963	5.2069	-11.652
2.720	44.78	99.2915	5.2066	-11.584
2.728	44.87	99.2867	5.2064	-11.516
2.737	44.96	99.2819	5.2061	-11.449
2.745	45.06	99.2770	5.2059	-11.382
2.753	45.15	99.2721	5.2056	-11.314
2.762	45.24	99.2672	5.2054	-11.246
2.770	45.33	99.2623	5.2051	-11.179
2.778	45.42	99.2574	5.2048	-11.114
2.787	45.52	99.2525	5.2046	-11.047
2.795	45.61	99.2475	5.2043	-10.981
2.803	45.70	99.2426	5.2041	-10.915
2.812	45.79	99.2376	5.2038	-10.851
2.820	45.88	99.2325	5.2035	-10.786
2.828	45.97	99.2275	5.2033	-10.721
2.837	46.07	99.2225	5.2030	-10.657
2.845	46.16	99.2174	5.2027	-10.592
2.853	46.25	99.2123	5.2025	-10.528
2.862	46.34	99.2073	5.2022	-10.462
2.870	46.43	99.2022	5.2019	-10.399
2.878	46.52	99.1970	5.2017	-10.335
2.887	46.61	99.1919	5.2014	-10.271
2.895	46.70	99.1868	5.2011	-10.207
2.903	46.79	99.1816	5.2009	-10.144
2.912	46.88	99.1765	5.2006	-10.079
2.920	46.97	99.1713	5.2003	-10.015
2.928	47.06	99.1661	5.2000	-9.951
2.937	47.16	99.1609	5.1998	-9.887
2.945	47.25	99.1557	5.1995	-9.824
2.953	47.34	99.1504	5.1992	-9.760
2.962	47.43	99.1452	5.1989	-9.696
2.970	47.52	99.1399	5.1987	-9.632
2.978	47.61	99.1345	5.1984	-9.568
2.987	47.70	99.1292	5.1981	-9.505
2.995	47.79	99.1239	5.1978	-9.442
3.003	47.88	99.1185	5.1976	-9.379
3.012	47.97	99.1131	5.1973	-9.317
3.020	48.06	99.1077	5.1970	-9.256
3.028	48.15	99.1023	5.1967	-9.194
3.037	48.24	99.0969	5.1964	-9.133
3.045	48.33	99.0915	5.1961	-9.071
3.053	48.42	99.0861	5.1958	-9.010
3.062	48.51	99.0806	5.1956	-8.950
3.070	48.60	99.0751	5.1953	-8.889
3.078	48.69	99.0696	5.1950	-8.828
3.087	48.78	99.0641	5.1947	-8.768
3.095	48.87	99.0586	5.1944	-8.708
3.103	48.96	99.0531	5.1941	-8.648
3.112	49.04	99.0476	5.1938	-8.588
3.120	49.13	99.0420	5.1935	-8.528
3.128	49.22	99.0365	5.1932	-8.469
3.137	49.31	99.0309	5.1930	-8.409
3.145	49.40	99.0253	5.1927	-8.350
3.153	49.49	99.0197	5.1924	-8.291
3.162	49.58	99.0141	5.1921	-8.234
3.170	49.67	99.0085	5.1918	-8.176
3.178	49.76	99.0028	5.1915	-8.119
3.187	49.84	98.9972	5.1912	-8.061
3.195	49.93	98.9915	5.1909	-8.003
3.203	50.02	98.9858	5.1906	-7.946
3.212	50.11	98.9801	5.1903	-7.889
3.220	50.20	98.9744	5.1900	-7.832
3.228	50.29	98.9687	5.1897	-7.775
3.237	50.38	98.9629	5.1894	-7.720
3.245	50.47	98.9572	5.1891	-7.663
3.253	50.55	98.9514	5.1888	-7.607
3.262	50.64	98.9456	5.1885	-7.551
3.270	50.73	98.9398	5.1882	-7.495
3.278	50.82	98.9340	5.1879	-7.440
3.287	50.90	98.9281	5.1876	-7.384
3.295	50.99	98.9223	5.1873	-7.329
3.303	51.08	98.9164	5.1870	-7.274
3.312	51.17	98.9105	5.1866	-7.220
3.320	51.25	98.9046	5.1863	-7.163
3.328	51.34	98.8987	5.1860	-7.107
3.337	51.43	98.8928	5.1857	-7.052
3.345	51.52	98.8869	5.1854	-6.997
3.353	51.60	98.8809	5.1851	-6.942
3.362	51.69	98.8750	5.1848	-6.888
3.370	51.78	98.8690	5.1845	-6.833
3.378	51.87	98.8630	5.1842	-6.779
3.387	51.95	98.8570	5.1838	-6.723
3.395	52.04	98.8511	5.1835	-6.668
3.403	52.13	98.8450	5.1832	-6.615
3.412	52.22	98.8390	5.1829	-6.563
3.420	52.30	98.8330	5.1826	-6.511
3.428	52.39	98.8270	5.1823	-6.459
3.437	52.48	98.8209	5.1819	-6.407
3.445	52.56	98.8149	5.1816	-6.355
3.453	52.65	98.8088	5.1813	-6.303
3.462	52.74	98.8027	5.1810	-6.252
3.470	52.82	98.7966	5.1807	-6.201
3.478	52.91	98.7905	5.1804	-6.150
3.487	53.00	98.7844	5.1800	-6.099
3.495	53.08	98.7783	5.1797	-6.047
3.503	53.17	98.7722	5.1794	-5.997
3.512	53.25	98.7661	5.1791	-5.947
3.520	53.34	98.7600	5.1788	-5.897
3.528	53.43	98.7539	5.1784	-5.846
3.537	53.51	98.7478	5.1781	-5.796
3.545	53.60	98.7417	5.1778	-5.746
3.553	53.69	98.7355	5.1775	-5.696
3.562	53.77	98.7294	5.1771	-5.647
3.570	53.86	98.7233	5.1768	-5.597
3.578	53.94	98.7171	5.1765	-5.547
3.587	54.03	98.7109	5.1762	-5.497
3.595	54.12	98.7048	5.1759	-5.446
3.603	54.20	98.6986	5.1755	-5.397
3.612	54.29	98.6924	5.1752	-5.349
3.620	54.38	98.6861	5.1749	-5.301
3.628	54.46	98.6799	5.1746	-5.253
3.637	54.55	98.6737	5.1742	-5.205
3.645	54.63	98.6674	5.1739	-5.157
3.653	54.72	98.6611	5.1736	-5.108
3.662	54.81	98.6549	5.1732	-5.060
3.670	54.89	98.6486	5.1729	-5.014
3.678	54.98	98.6423	5.1726	-4.966
3.687	55.06	98.6360	5.1722	-4.919
3.695	55.15	98.6297	5.1719	-4.871
3.703	55.23	98.6234	5.1716	-4.823
3.712	55.32	98.6170	5.1713	-4.775
3.720	55.41	98.6107	5.1709	-4.729
3.728	55.49	98.6044	5.1706	-4.681
3.737	55.58	98.5981	5.1703	-4.634
3.745	55.66	98.5917	5.1699	-4.588
3.753	55.75	98.5854	5.1696	-4.541
3.762	55.83	98.5790	5.1693	-4.494
3.770	55.92	98.5727	5.1689	-4.448
3.778	56.00	98.5663	5.1686	-4.401
3.787	56.09	98.5599	5.1683	-4.355
3.795	56.17	98.5535	5.1679	-4.309
3.803	56.26	98.5472	5.1676	-4.263
3.812	56.34	98.5408	5.1673	-4.218
3.820	56.43	98.5345	5.1669	-4.173
3.828	56.51	98.5281	5.1666	-4.127
3.837	56.60	98.5218	5.1663	-4.082
3.845	56.68	98.5154	5.1659	-4.038
3.853	56.77	98.5091	5.1656	-3.992
3.862	56.85	98.5028	5.1653	-3.948
3.870	56.94	98.4964	5.1649	-3.903
3.878	57.02	98.4901	5.1646	-3.859
3.887	57.11	98.4837	5.1643	-3.814
3.895	57.20	98.4774	5.1639	-3.768
3.903	57.28	98.4710	5.1636	-3.724
3.912	57.37	98.4646	5.1633	-3.681
3.920	57.45	98.4583	5.1629	-3.637
3.928	57.54	98.4519	5.1626	-3.592
3.937	57.62	98.4455	5.1623	-3.548
3.945	57.71	98.4391	5.1619	-3.503
3.953	57.79	98.4327	5.1616	-3.460
3.962	57.88	98.4263	5.1613	-3.417
3.970	57.96	98.4199	5.1609	-3.375
3.978	58.05	98.4135	5.1606	-3.333
3.987	58.13	98.4071	5.1602	-3.291
3.995	58.22	98.4007	5.1599	-3.248
4.003	58.30	98.3943	5.1596	-3.206
4.012	58.38	98.3879	5.1592	-3.165
4.020	58.47	98.3815	5.1589	-3.123
4.028	58.55	98.3751	5.1586	-3.082
4.037	58.64	98.3687	5.1582	-3.039
4.045	58.72	98.3623	5.1579	-2.998
4.053	58.81	98.3559	5.1576	-2.955
4.062	58.89	98.3495	5.1572	-2.913
4.070	58.98	98.3431	5.1569	-2.871
4.078	59.06	98.3367	5.1566	-2.829
4.087	59.15	98.3304	5.1562	-2.787
4.095	59.23	98.3240	5.1559	-2.745
4.103	59.32	98.3176	5.1556	-2.704
4.112	59.40	98.3112	5.1552	-2.662
4.120	59.49	98.3048	5.1549	-2.621
4.128	59.57	98.2984	5.1545	-2.580
4.137	59.66	98.2921	5.1542	-2.539
4.145	59.74	98.2857	5.1539	-2.499
4.153	59.82	98.2794	5.1536	-2.458
4.162	59.91	98.2731	5.1532	-2.417
4.170	59.99	98.2667	5.1529	-2.377
4.178	60.08	98.2604	5.1526	-2.335
4.187	60.16	98.2541	5.1522	-2.294
4.195	60.25	98.2478	5.1519	-2.253
4.203	60.33	98.2415	5.1516	-2.213
4.212	60.42	98.2352	5.1512	-2.171
4.220	60.50	98.2289	5.1509	-2.130
4.228	60.58	98.2226	5.1506	-2.090
4.237	60.67	98.2164	5.1502	-2.050
4.245	60.75	98.2101	5.1499	-2.009
4.253	60.84	98.2038	5.1496	-1.970
4.262	60.92	98.1975	5.1493	-1.932
4.270	61.01	98.1913	5.1489	-1.895
4.278	61.09	98.1850	5.1486	-1.857
4.287	61.18	98.1788	5.1483	-1.819
4.295	61.26	98.1725	5.1479	-1.782
4.303	61.35	98.1663	5.1476	-1.743
4.312	61.43	98.1601	5.1473	-1.705
4.320	61.51	98.1538	5.1470	-1.667
4.328	61.60	98.1476	5.1466	-1.630
4.337	61.68	98.1414	5.1463	-1.592
4.345	61.77	98.1352	5.1460	-1.553
4.353	61.85	98.1290	5.1457	-1.514
4.362	61.94	98.1228	5.1453	-1.475
4.370	62.02	98.1166	5.1450	-1.437
4.378	62.11	98.1104	5.1447	-1.400
4.387	62.19	98.1043	5.1444	-1.362
4.395	62.27	98.0981	5.1440	-1.324
4.403	62.36	98.0919	5.1437	-1.285
4.412	62.44	98.0858	5.1434	-1.247
4.420	62.53	98.0796	5.1431	-1.209
4.428	62.61	98.0735	5.1428	-1.172
4.437	62.70	98.0673	5.1424	-1.135
4.445	62.78	98.0612	5.1421	-1.098
4.453	62.87	98.0551	5.1418	-1.060
4.462	62.95	98.0490	5.1415	-1.023
4.470	63.03	98.0428	5.1411	-0.986
4.478	63.12	98.0367	5.1408	-0.949
4.487	63.20	98.0306	5.1405	-0.912
4.495	63.29	98.0245	5.1402	-0.875
4.503	63.37	98.0185	5.1399	-0.837
4.512	63.46	98.0124	5.1395	-0.799
4.520	63.54	98.0063	5.1392	-0.763
4.528	63.63	98.0003	5.1389	-0.725
4.537	63.71	97.9942	5.1386	-0.687
4.545	63.80	97.9882	5.1383	-0.651
4.553	63.88	97.9822	5.1380	-0.614
4.562	63.96	97.9762	5.1376	-0.578
4.570	64.05	97.9702	5.1373	-0.543
4.578	64.13	97.9642	5.1370	-0.507
4.587	64.22	97.9582	5.1367	-0.472
4.595	64.30	97.9522	5.1364	-0.435
4.603	64.39	97.9462	5.1361	-0.400
4.612	64.47	97.9403	5.1358	-0.365
4.620	64.56	97.9343	5.1355	-0.331
4.628	64.64	97.9284	5.1351	-0.296
4.637	64.73	97.9225	5.1348	-0.260
4.645	64.81	97.9166	5.1345	-0.225
4.653	64.90	97.9107	5.1342	-0.190
4.662	64.98	97.9049	5.1339	-0.156
4.670	65.07	97.8991	5.1336	-0.121
4.678	65.15	97.8933	5.1333	-0.086
4.687	65.23	97.8874	5.1330	-0.050
4.695	65.32	97.8816	5.1327	-0.015
4.703	65.40	97.8758	5.1324	0.020
4.712	65.49	97.8701	5.1321	0.055
4.720	65.57	97.8643	5.1318	0.090
4.728	65.66	97.8586	5.1315	0.125
4.737	65.74	97.8528	5.1312	0.160
4.745	65.83	97.8471	5.1309	0.195
4.753	65.91	97.8414	5.1306	0.230
4.762	66.00	97.8357	5.1303	0.264
4.770	66.08	97.8300	5.1300	0.298
4.778	66.17	97.8244	5.1297	0.333
4.787	66.25	97.8187	5.1294	0.368
4.795	66.34	97.8131	5.1291	0.403
4.803	66.42	97.8074	5.1288	0.437
4.812	66.51	97.8018	5.1285	0.472
4.820	66.59	97.7962	5.1282	0.507
4.828	66.68	97.7906	5.1279	0.539
4.837	66.76	97.7850	5.1276	0.573
4.845	66.84	97.7795	5.1273	0.607
4.853	66.93	97.7739	5.1270	0.641
4.862	67.01	97.7684	5.1268	0.673
4.870	67.10	97.7629	5.1265	0.706
4.878	67.18	97.7574	5.1262	0.738
4.887	67.27	97.7519	5.1259	0.772
4.895	67.35	97.7464	5.1256	0.805
4.903	67.44	97.7409	5.1253	0.837
4.912	67.52	97.7355	5.1250	0.872
4.920	67.61	97.7300	5.1247	0.906
4.928	67.69	97.7246	5.1245	0.938
4.937	67.78	97.7192	5.1242	0.971
4.945	67.86	97.7138	5.1239	1.005
4.953	67.95	97.7084	5.1236	1.039
4.962	68.03	97.7030	5.1233	1.072
4.970	68.12	97.6977	5.1230	1.104
4.978	68.20	97.6923	5.1228	1.138
4.987	68.29	97.6870	5.1225	1.171
4.995	68.37	97.6817	5.1222	1.203
5.003	68.46	97.6764	5.1219	1.236
5.012	68.54	97.6712	5.1217	1.269
5.020	68.63	97.6659	5.1214	1.302
5.028	68.71	97.6607	5.1211	1.335
5.037	68.80	97.6555	5.1208	1.367
5.045	68.88	97.6503	5.1206	1.399
5.053	68.97	97.6451	5.1203	1.431
5.062	69.05	97.6399	5.1200	1.463
5.070	69.14	97.6348	5.1197	1.495
5.078	69.23	97.6296	5.1195	1.527
5.087	69.31	97.6245	5.1192	1.559
5.095	69.40	97.6194	5.1189	1.590
5.103	69.48	97.6143	5.1187	1.622
5.112	69.57	97.6093	5.1184	1.654
5.120	69.65	97.6042	5.1181	1.686
5.128	69.74	97.5992	5.1179	1.718
5.137	69.82	97.5942	5.1176	1.750
5.145	69.91	97.5892	5.1174	1.781
5.153	69.99	97.5842	5.1171	1.813
5.162	70.08	97.5793	5.1168	1.844
5.170	70.16	97.5743	5.1166	1.876
5.178	70.25	97.5694	5.1163	1.909
5.187	70.33	97.5644	5.1161	1.940
5.195	70.42	97.5595	5.1158	1.970
5.203	70.51	97.5546	5.1155	2.001
5.212	70.59	97.5497	5.1153	2.031
5.220	70.68	97.5448	5.1150	2.060
5.228	70.76	97.5399	5.1148	2.089
5.237	70.85	97.5351	5.1145	2.118
5.245	70.93	97.5302	5.1143	2.148
5.253	71.02	97.5254	5.1140	2.177
5.262	71.10	97.5206	5.1138	2.206
5.270	71.19	97.5158	5.1135	2.236
5.278	71.27	97.5111	5.1133	2.265
5.287	71.36	97.5064	5.1130	2.295
5.295	71.44	97.5017	5.1128	2.326
5.303	71.53	97.4970	5.1125	2.357
5.312	71.61	97.4924	5.1123	2.388
5.320	71.70	97.4878	5.1120	2.419
5.328	71.79	97.4832	5.1118	2.450
5.337	71.87	97.4786	5.1116	2.480
5.345	71.96	97.4740	5.1113	2.512
5.353	72.04	97.4695	5.1111	2.543
5.362	72.13	97.4650	5.1108	2.573
5.370	72.22	97.4604	5.1106	2.603
5.378	72.30	97.4559	5.1104	2.633
5.387	72.39	97.4514	5.1101	2.664
5.395	72.47	97.4469	5.1099	2.694
5.403	72.56	97.4425	5.1097	2.724
5.412	72.64	97.4380	5.1094	2.752
5.420	72.73	97.4336	5.1092	2.782
5.428	72.82	97.4292	5.1090	2.811
5.437	72.90	97.4248	5.1087	2.840
5.445	72.99	97.4204	5.1085	2.870
5.453	73.07	97.4161	5.1083	2.898
5.462	73.16	97.4117	5.1081	2.928
5.470	73.24	97.4074	5.1078	2.956
5.478	73.33	97.4031	5.1076	2.983
5.487	73.42	97.3988	5.1074	3.012
5.495	73.50	97.3945	5.1072	3.042
5.503	73.59	97.3903	5.1069	3.073
5.512	73.67	97.3860	5.1067	3.103
5.520	73.76	97.3818	5.1065	3.131
5.528	73.84	97.3776	5.1063	3.159
5.537	73.93	97.3734	5.1060	3.188
5.545	74.02	97.3692	5.1058	3.216
5.553	74.10	97.3650	5.1056	3.246
5.562	74.19	97.3609	5.1054	3.276
5.570	74.28	97.3568	5.1052	3.305
5.578	74.36	97.3527	5.1050	3.333
5.587	74.45	97.3486	5.1047	3.360
5.595	74.53	97.3445	5.1045	3.388
5.603	74.62	97.3404	5.1043	3.415
5.612	74.71	97.3364	5.1041	3.442
5.620	74.79	97.3323	5.1039	3.469
5.628	74.88	97.3283	5.1037	3.497
5.637	74.96	97.3243	5.1035	3.524
5.645	75.05	97.3203	5.1033	3.551
5.653	75.14	97.3163	5.1030	3.580
5.662	75.22	97.3124	5.1028	3.607
5.670	75.31	97.3084	5.1026	3.635
5.678	75.39	97.3045	5.1024	3.663
5.687	75.48	97.3006	5.1022	3.690
5.695	75.57	97.2967	5.1020	3.717
5.703	75.65	97.2928	5.1018	3.743
5.712	75.74	97.2890	5.1016	3.771
5.720	75.83	97.2852	5.1014	3.798
5.728	75.91	97.2814	5.1012	3.825
5.737	76.00	97.2776	5.1010	3.851
5.745	76.08	97.2738	5.1008	3.876
5.753	76.17	97.2701	5.1006	3.902
5.762	76.26	97.2663	5.1004	3.929
5.770	76.34	97.2626	5.1002	3.955
5.778	76.43	97.2589	5.1000	3.983
5.787	76.51	97.2552	5.0998	4.011
5.795	76.60	97.2516	5.0997	4.038
5.803	76.69	97.2479	5.0995	4.064
5.812	76.77	97.2443	5.0993	4.090
5.820	76.86	97.2407	5.0991	4.116
5.828	76.94	97.2371	5.0989	4.143
5.837	77.03	97.2335	5.0987	4.169
5.845	77.12	97.2299	5.0985	4.195
5.853	77.20	97.2264	5.0983	4.221
5.862	77.29	97.2228	5.0981	4.247
5.870	77.38	97.2193	5.0980	4.274
5.878	77.46	97.2158	5.0978	4.300
5.887	77.55	97.2124	5.0976	4.327
5.895	77.63	97.2089	5.0974	4.352
5.903	77.72	97.2054	5.0972	4.377
5.912	77.81	97.2020	5.0971	4.402
5.920	77.89	97.1986	5.0969	4.427
5.928	77.98	97.1952	5.0967	4.452
5.937	78.07	97.1919	5.0965	4.478
5.945	78.15	97.1885	5.0963	4.502
5.953	78.24	97.1852	5.0962	4.526
5.962	78.32	97.1819	5.0960	4.550
5.970	78.41	97.1786	5.0958	4.574
5.978	78.50	97.1753	5.0957	4.599
5.987	78.58	97.1721	5.0955	4.624
5.995	78.67	97.1689	5.0953	4.648
6.003	78.76	97.1657	5.0951	4.672
6.012	78.84	97.1625	5.0950	4.698
6.020	78.93	97.1593	5.0948	4.723
6.028	79.02	97.1561	5.0946	4.748
6.037	79.10	97.1529	5.0945	4.773
6.045	79.19	97.1498	5.0943	4.797
6.053	79.28	97.1467	5.0942	4.821
6.062	79.36	97.1436	5.0940	4.846
6.070	79.45	97.1405	5.0938	4.871
6.078	79.54	97.1374	5.0937	4.898
6.087	79.62	97.1344	5.0935	4.923
6.095	79.71	97.1314	5.0934	4.947
6.103	79.80	97.1284	5.0932	4.971
6.112	79.88	97.1254	5.0930	4.993
6.120	79.97	97.1224	5.0929	5.016
6.128	80.05	97.1195	5.0927	5.038
6.137	80.14	97.1166	5.0926	5.061
6.145	80.23	97.1136	5.0924	5.084
6.153	80.31	97.1107	5.0923	5.107
6.162	80.40	97.1079	5.0921	5.129
6.170	80.49	97.1050	5.0920	5.152
6.178	80.57	97.1021	5.0918	5.174
6.187	80.66	97.0993	5.0917	5.196
6.195	80.74	97.0965	5.0915	5.220
6.203	80.83	97.0937	5.0914	5.244
6.212	80.92	97.0909	5.0912	5.267
6.220	81.00	97.0881	5.0911	5.290
6.228	81.09	97.0854	5.0909	5.313
6.237	81.18	97.0827	5.0908	5.336
6.245	81.26	97.0800	5.0907	5.359
6.253	81.35	97.0773	5.0905	5.381
6.262	81.44	97.0746	5.0904	5.403
6.270	81.52	97.0720	5.0902	5.425
6.278	81.61	97.0694	5.0901	5.448
6.287	81.69	97.0668	5.0900	5.471
6.295	81.78	97.0642	5.0898	5.494
6.303	81.87	97.0617	5.0897	5.516
6.312	81.95	97.0591	5.0896	5.537
6.320	82.04	97.0566	5.0894	5.558
6.328	82.13	97.0541	5.0893	5.579
6.337	82.21	97.0516	5.0892	5.600
6.345	82.30	97.0490	5.0890	5.621
6.353	82.39	97.0465	5.0889	5.643
6.362	82.47	97.0441	5.0888	5.664
6.370	82.56	97.0416	5.0886	5.686
6.378	82.65	97.0391	5.0885	5.707
6.387	82.73	97.0367	5.0884	5.729
6.395	82.82	97.0342	5.0883	5.750
6.403	82.91	97.0318	5.0881	5.772
6.412	82.99	97.0294	5.0880	5.793
6.420	83.08	97.0271	5.0879	5.814
6.428	83.17	97.0247	5.0878	5.834
6.437	83.25	97.0224	5.0876	5.855
6.445	83.34	97.0200	5.0875	5.875
6.453	83.43	97.0177	5.0874	5.896
6.462	83.51	97.0154	5.0873	5.917
6.470	83.60	97.0131	5.0871	5.937
6.478	83.69	97.0108	5.0870	5.959
6.487	83.77	97.0085	5.0869	5.979
6.495	83.86	97.0063	5.0868	6.000
6.503	83.95	97.0040	5.0867	6.021
6.512	84.03	97.0018	5.0866	6.042
6.520	84.12	96.9996	5.0864	6.062
6.528	84.20	96.9974	5.0863	6.082
6.537	84.29	96.9952	5.0862	6.100
6.545	84.38	96.9931	5.0861	6.119
6.553	84.46	96.9909	5.0860	6.137
6.562	84.55	96.9888	5.0859	6.156
6.570	84.64	96.9867	5.0858	6.175
6.578	84.72	96.9846	5.0857	6.194
6.587	84.81	96.9825	5.0855	6.214
6.595	84.90	96.9804	5.0854	6.233
6.603	84.98	96.9783	5.0853	6.251
6.612	85.07	96.9762	5.0852	6.272
6.620	85.16	96.9742	5.0851	6.293
6.628	85.24	96.9721	5.0850	6.313
6.637	85.33	96.9701	5.0849	6.333
6.645	85.42	96.9681	5.0848	6.352
6.653	85.50	96.9661	5.0847	6.373
6.662	85.59	96.9642	5.0846	6.393
6.670	85.68	96.9622	5.0845	6.413
6.678	85.76	96.9603	5.0844	6.433
6.687	85.85	96.9584	5.0843	6.452
6.695	85.94	96.9565	5.0842	6.471
6.703	86.02	96.9546	5.0841	6.488
6.712	86.11	96.9527	5.0840	6.506
6.720	86.20	96.9508	5.0839	6.525
6.728	86.28	96.9490	5.0838	6.544
6.737	86.37	96.9472	5.0837	6.562
6.745	86.45	96.9454	5.0836	6.580
6.753	86.54	96.9436	5.0835	6.598
6.762	86.63	96.9418	5.0834	6.616
6.770	86.71	96.9401	5.0833	6.635
6.778	86.80	96.9383	5.0832	6.653
6.787	86.89	96.9366	5.0831	6.673
6.795	86.97	96.9349	5.0830	6.691
6.803	87.06	96.9332	5.0830	6.710
6.812	87.15	96.9315	5.0829	6.728
6.820	87.23	96.9297	5.0828	6.745
6.828	87.32	96.9280	5.0827	6.762
6.837	87.41	96.9264	5.0826	6.778
6.845	87.49	96.9247	5.0825	6.795
6.853	87.58	96.9230	5.0824	6.812
6.862	87.66	96.9213	5.0823	6.828
6.870	87.75	96.9196	5.0822	6.843
6.878	87.84	96.9180	5.0822	6.859
6.887	87.92	96.9164	5.0821	6.874
6.895	88.01	96.9147	5.0820	6.890
6.903	88.10	96.9131	5.0819	6.907
6.912	88.18	96.9116	5.0818	6.923
6.920	88.27	96.9100	5.0817	6.940
6.928	88.36	96.9085	5.0817	6.956
6.937	88.44	96.9070	5.0816	6.972
6.945	88.53	96.9055	5.0815	6.989
6.953	88.62	96.9040	5.0814	7.005
6.962	88.70	96.9025	5.0813	7.022
6.970	88.79	96.9010	5.0813	7.038
6.978	88.88	96.8996	5.0812	7.054
6.987	88.96	96.8981	5.0811	7.068
6.995	89.05	96.8967	5.0810	7.085
7.003	89.14	96.8952	5.0810	7.101
7.012	89.22	96.8938	5.0809	7.117
7.020	89.31	96.8923	5.0808	7.132
7.028	89.39	96.8909	5.0807	7.147
7.037	89.48	96.8895	5.0807	7.163
7.045	89.57	96.8881	5.0806	7.178
7.053	89.65	96.8868	5.0805	7.194
7.062	89.74	96.8854	5.0805	7.209
7.070	89.82	96.8840	5.0804	7.224
7.078	89.91	96.8826	5.0803	7.239
7.087	90.00	96.8813	5.0802	7.253
7.095	90.08	96.8800	5.0802	7.267
7.103	90.17	96.8787	5.0801	7.282
7.112	90.26	96.8774	5.0800	7.297
7.120	90.34	96.8761	5.0800	7.312
7.128	90.43	96.8748	5.0799	7.327
7.137	90.52	96.8736	5.0798	7.342
7.145	90.60	96.8723	5.0798	7.357
7.153	90.69	96.8711	5.0797	7.372
7.162	90.77	96.8699	5.0796	7.386
7.170	90.86	96.8687	5.0796	7.402
7.178	90.95	96.8675	5.0795	7.417
7.187	91.03	96.8664	5.0795	7.431
7.195	91.12	96.8652	5.0794	7.446
7.203	91.21	96.8641	5.0793	7.460
7.212	91.29	96.8629	5.0793	7.473
7.220	91.38	96.8618	5.0792	7.486
7.228	91.46	96.8607	5.0792	7.499
7.237	91.55	96.8595	5.0791	7.512
7.245	91.64	96.8584	5.0790	7.526
7.253	91.72	96.8573	5.0790	7.539
7.262	91.81	96.8562	5.0789	7.551
7.270	91.89	96.8552	5.0789	7.564
7.278	91.98	96.8541	5.0788	7.577
7.287	92.07	96.8531	5.0788	7.590
7.295	92.15	96.8520	5.0787	7.603
7.303	92.24	96.8509	5.0786	7.617
7.312	92.33	96.8499	5.0786	7.630
7.320	92.41	96.8489	5.0785	7.643
7.328	92.50	96.8478	5.0785	7.655
7.337	92.58	96.8468	5.0784	7.667
7.345	92.67	96.8458	5.0784	7.679
7.353	92.76	96.8448	5.0783	7.691
7.362	92.84	96.8438	5.0783	7.703
7.370	92.93	96.8428	5.0782	7.714
7.378	93.02	96.8419	5.0782	7.726
7.387	93.10	96.8409	5.0781	7.738
7.395	93.19	96.8400	5.0781	7.751
7.403	93.27	96.8391	5.0780	7.764
7.412	93.36	96.8382	5.0780	7.776
7.420	93.45	96.8373	5.0779	7.788
7.428	93.53	96.8364	5.0779	7.801
7.437	93.62	96.8355	5.0778	7.812
7.445	93.70	96.8347	5.0778	7.823
7.453	93.79	96.8338	5.0777	7.835
7.462	93.88	96.8329	5.0777	7.847
7.470	93.96	96.8321	5.0777	7.859
7.478	94.05	96.8312	5.0776	7.870
7.487	94.13	96.8303	5.0776	7.881
7.495	94.22	96.8295	5.0775	7.892
7.503	94.31	96.8286	5.0775	7.904
7.512	94.39	96.8278	5.0774	7.916
7.520	94.48	96.8270	5.0774	7.928
7.528	94.57	96.8262	5.0773	7.940
7.537	94.65	96.8253	5.0773	7.951
7.545	94.74	96.8245	5.0773	7.962
7.553	94.83	96.8237	5.0772	7.971
7.562	94.91	96.8229	5.0772	7.982
7.570	95.00	96.8222	5.0771	7.991
7.578	95.08	96.8214	5.0771	8.001
7.587	95.17	96.8206	5.0771	8.010
7.595	95.26	96.8199	5.0770	8.019
7.603	95.34	96.8191	5.0770	8.028
7.612	95.43	96.8184	5.0769	8.037
7.620	95.51	96.8176	5.0769	8.046
7.628	95.60	96.8169	5.0769	8.055
7.637	95.68	96.8162	5.0768	8.065
7.645	95.77	96.8154	5.0768	8.074
7.653	95.86	96.8147	5.0767	8.084
7.662	95.94	96.8139	5.0767	8.094
7.670	96.03	96.8132	5.0767	8.104
7.678	96.11	96.8125	5.0766	8.114
7.687	96.20	96.8118	5.0766	8.123
7.695	96.29	96.8111	5.0766	8.132
7.703	96.37	96.8104	5.0765	8.141
7.712	96.46	96.8097	5.0765	8.151
7.720	96.54	96.8090	5.0764	8.160
7.728	96.63	96.8084	5.0764	8.169
7.737	96.72	96.8077	5.0764	8.178
7.745	96.80	96.8071	5.0763	8.186
7.753	96.89	96.8064	5.0763	8.195
7.762	96.98	96.8058	5.0763	8.204
7.770	97.06	96.8052	5.0762	8.212
7.778	97.15	96.8045	5.0762	8.222
7.787	97.23	96.8039	5.0762	8.231
7.795	97.32	96.8032	5.0761	8.239
7.803	97.40	96.8026	5.0761	8.247
7.812	97.49	96.8020	5.0761	8.255
7.820	97.58	96.8013	5.0760	8.262
7.828	97.66	96.8007	5.0760	8.270
7.837	97.75	96.8001	5.0760	8.277
7.845	97.83	96.7995	5.0759	8.283
7.853	97.92	96.7989	5.0759	8.290
7.862	98.01	96.7983	5.0759	8.296
7.870	98.09	96.7978	5.0759	8.303
7.878	98.18	96.7972	5.0758	8.309
7.887	98.26	96.7967	5.0758	8.316
7.895	98.35	96.7961	5.0758	8.323
7.903	98.43	96.7956	5.0757	8.331
7.912	98.52	96.7950	5.0757	8.338
7.920	98.61	96.7945	5.0757	8.345
7.928	98.69	96.7940	5.0757	8.352
7.937	98.78	96.7935	5.0756	8.360
7.945	98.86	96.7929	5.0756	8.368
7.953	98.95	96.7924	5.0756	8.376
7.962	99.03	96.7919	5.0756	8.383
7.970	99.12	96.7914	5.0755	8.391
7.978	99.21	96.7909	5.0755	8.397
7.987	99.29	96.7904	5.0755	8.404
7.995	99.38	96.7899	5.0754	8.410
8.003	99.46	96.7893	5.0754	8.416
8.012	99.55	96.7888	5.0754	8.422
8.020	99.64	96.7883	5.0754	8.428
8.028	99.72	96.7878	5.0753	8.433
8.037	99.81	96.7873	5.0753	8.437
8.045	99.89	96.7868	5.0753	8.442
8.053	99.98	96.7863	5.0753	8.447
8.062	100.06	96.7859	5.0752	8.451
8.070	100.15	96.7854	5.0752	8.457
8.078	100.24	96.7849	5.0752	8.462
8.087	100.32	96.7844	5.0752	8.467
8.095	100.41	96.7840	5.0751	8.473
8.103	100.49	96.7835	5.0751	8.478
8.112	100.58	96.7831	5.0751	8.484
8.120	100.66	96.7826	5.0751	8.489
8.128	100.75	96.7822	5.0750	8.495
8.137	100.84	96.7817	5.0750	8.502
8.145	100.92	96.7813	5.0750	8.508
8.153	101.01	96.7809	5.0750	8.515
8.162	101.09	96.7805	5.0749	8.521
8.170	101.18	96.7800	5.0749	8.527
8.178	101.26	96.7796	5.0749	8.533
8.187	101.35	96.7792	5.0749	8.540
8.195	101.44	96.7788	5.0749	8.546
8.203	101.52	96.7784	5.0748	8.551
8.212	101.61	96.7783	5.0748	8.555
8.220	101.69	96.7782	5.0748	8.559
8.228	101.78	96.7783	5.0748	8.562
8.237	101.86	96.7785	5.0748	8.565
8.245	101.95	96.7788	5.0749	8.568
8.253	102.03	96.7793	5.0749	8.569
8.262	102.12	96.7799	5.0749	8.571
8.270	102.21	96.7806	5.0750	8.572
8.278	102.29	96.7813	5.0750	8.573
8.287	102.38	96.7821	5.0750	8.575
8.295	102.46	96.7829	5.0751	8.576
8.303	102.55	96.7836	5.0751	8.578
8.312	102.63	96.7843	5.0752	8.580
8.320	102.72	96.7850	5.0752	8.582
8.328	102.80	96.7856	5.0752	8.583
8.337	102.89	96.7862	5.0753	8.585
8.345	102.98	96.7868	5.0753	8.586
8.353	103.06	96.7874	5.0753	8.588
8.362	103.15	96.7879	5.0753	8.590
8.370	103.23	96.7885	5.0754	8.591
8.378	103.32	96.7890	5.0754	8.593
8.387	103.40	96.7895	5.0754	8.595
8.395	103.49	96.7899	5.0754	8.597
8.403	103.58	96.7904	5.0755	8.599
8.412	103.66	96.7908	5.0755	8.601
8.420	103.75	96.7912	5.0755	8.604
8.428	103.83	96.7916	5.0755	8.607
8.437	103.92	96.7920	5.0756	8.609
8.445	104.00	96.7924	5.0756	8.611
8.453	104.09	96.7928	5.0756	8.614
8.462	104.17	96.7931	5.0756	8.616
8.470	104.26	96.7934	5.0756	8.618
8.478	104.35	96.7937	5.0756	8.620
8.487	104.43	96.7941	5.0757	8.622
8.495	104.52	96.7944	5.0757	8.625
8.503	104.60	96.7945	5.0757	8.628
8.512	104.69	96.7946	5.0757	8.631
8.520	104.77	96.7944	5.0757	8.634
8.528	104.86	96.7941	5.0757	8.638
8.537	104.94	96.7936	5.0756	8.641
8.545	105.03	96.7929	5.0756	8.645
8.553	105.12	96.7921	5.0756	8.650
8.562	105.20	96.7912	5.0755	8.656
8.570	105.29	96.7900	5.0755	8.660
8.578	105.37	96.7888	5.0754	8.665
8.587	105.46	96.7875	5.0753	8.670
8.595	105.54	96.7862	5.0753	8.674
8.603	105.63	96.7850	5.0752	8.678
8.612	105.71	96.7838	5.0751	8.682
8.620	105.80	96.7826	5.0751	8.686
8.628	105.88	96.7815	5.0750	8.689
8.637	105.97	96.7804	5.0749	8.691
8.645	106.06	96.7793	5.0749	8.692
8.653	106.14	96.7783	5.0748	8.694
8.662	106.23	96.7773	5.0748	8.695
8.670	106.31	96.7763	5.0747	8.696
8.678	106.40	96.7753	5.0747	8.697
8.687	106.48	96.7744	5.0746	8.699
8.695	106.57	96.7735	5.0746	8.700

[step]
Isothermal 30.0 min
Time	Temperature	Weight	Weight	Heat Flow
min	°C	%	mg	mW
8.703	106.65	96.7727	5.0745	8.702
8.728	106.91	96.7703	5.0744	8.706
8.753	107.17	96.7682	5.0743	8.711
8.778	107.42	96.7662	5.0742	8.717
8.803	107.68	96.7642	5.0741	8.723
8.828	107.93	96.7622	5.0740	8.732
8.853	108.18	96.7602	5.0739	8.746
8.878	108.43	96.7583	5.0738	8.762
8.903	108.67	96.7566	5.0737	8.784
8.928	108.91	96.7549	5.0736	8.809
8.953	109.15	96.7534	5.0735	8.841
8.978	109.38	96.7519	5.0735	8.874
9.003	109.61	96.7504	5.0734	8.909
9.028	109.83	96.7490	5.0733	8.948
9.053	110.05	96.7476	5.0732	8.989
9.078	110.26	96.7462	5.0732	9.035
9.103	110.47	96.7448	5.0731	9.078
9.128	110.67	96.7435	5.0730	9.123
9.153	110.86	96.7421	5.0729	9.172
9.178	111.05	96.7408	5.0729	9.222
9.203	111.23	96.7394	5.0728	9.272
9.228	111.41	96.7381	5.0727	9.324
9.253	111.58	96.7368	5.0727	9.377
9.278	111.74	96.7354	5.0726	9.431
9.303	111.90	96.7341	5.0725	9.483
9.328	112.04	96.7328	5.0725	9.532
9.353	112.19	96.7315	5.0724	9.581
9.378	112.32	96.7302	5.0723	9.631
9.403	112.45	96.7289	5.0722	9.682
9.428	112.57	96.7276	5.0722	9.729
9.453	112.68	96.7263	5.0721	9.779
9.478	112.79	96.7252	5.0721	9.828
9.503	112.89	96.7241	5.0720	9.883
9.528	112.98	96.7230	5.0719	9.934
9.553	113.06	96.7218	5.0719	9.984
9.578	113.14	96.7206	5.0718	10.026
9.603	113.21	96.7193	5.0717	10.070
9.628	113.27	96.7181	5.0717	10.111
9.653	113.32	96.7168	5.0716	10.152
9.678	113.37	96.7155	5.0715	10.189
9.703	113.42	96.7142	5.0715	10.220
9.728	113.46	96.7129	5.0714	10.249
9.753	113.49	96.7117	5.0713	10.276
9.778	113.51	96.7105	5.0713	10.303
9.803	113.53	96.7093	5.0712	10.326
9.828	113.55	96.7081	5.0712	10.344
9.853	113.56	96.7069	5.0711	10.359
9.878	113.57	96.7056	5.0710	10.373
9.903	113.57	96.7044	5.0710	10.385
9.928	113.57	96.7031	5.0709	10.394
9.953	113.56	96.7019	5.0708	10.400
9.978	113.55	96.7007	5.0708	10.403
10.003	113.53	96.6996	5.0707	10.406
10.028	113.51	96.6984	5.0706	10.408
10.053	113.49	96.6973	5.0706	10.409
10.078	113.46	96.6962	5.0705	10.410
10.103	113.43	96.6950	5.0705	10.410
10.128	113.40	96.6937	5.0704	10.407
10.153	113.36	96.6924	5.0703	10.401
10.178	113.33	96.6911	5.0703	10.392
10.203	113.29	96.6899	5.0702	10.374
10.228	113.25	96.6888	5.0701	10.351
10.253	113.21	96.6877	5.0701	10.321
10.278	113.17	96.6867	5.0700	10.287
10.303	113.13	96.6858	5.0700	10.256
10.328	113.09	96.6849	5.0699	10.224
10.353	113.05	96.6840	5.0699	10.192
10.378	113.01	96.6832	5.0699	10.157
10.403	112.96	96.6825	5.0698	10.120
10.428	112.92	96.6817	5.0698	10.081
10.453	112.88	96.6810	5.0697	10.046
10.478	112.83	96.6803	5.0697	10.010
10.503	112.79	96.6797	5.0697	9.974
10.528	112.75	96.6791	5.0696	9.934
10.553	112.70	96.6785	5.0696	9.895
10.578	112.66	96.6779	5.0696	9.858
10.603	112.62	96.6773	5.0695	9.823
10.628	112.58	96.6768	5.0695	9.783
10.653	112.54	96.6762	5.0695	9.746
10.678	112.50	96.6757	5.0695	9.706
10.703	112.46	96.6752	5.0694	9.668
10.728	112.42	96.6746	5.0694	9.633
10.753	112.38	96.6741	5.0694	9.600
10.778	112.34	96.6736	5.0693	9.567
10.803	112.30	96.6731	5.0693	9.531
10.828	112.27	96.6727	5.0693	9.495
10.853	112.23	96.6723	5.0693	9.458
10.878	112.20	96.6718	5.0693	9.425
10.903	112.17	96.6714	5.0692	9.392
10.928	112.14	96.6710	5.0692	9.359
10.953	112.11	96.6707	5.0692	9.326
10.978	112.08	96.6704	5.0692	9.296
11.003	112.05	96.6701	5.0692	9.267
11.028	112.03	96.6697	5.0691	9.242
11.053	112.00	96.6694	5.0691	9.215
11.078	111.98	96.6691	5.0691	9.184
11.103	111.96	96.6689	5.0691	9.152
11.128	111.93	96.6686	5.0691	9.117
11.153	111.91	96.6683	5.0691	9.086
11.178	111.90	96.6680	5.0691	9.058
11.203	111.88	96.6677	5.0690	9.034
11.228	111.86	96.6675	5.0690	9.009
11.253	111.85	96.6673	5.0690	8.985
11.278	111.84	96.6671	5.0690	8.963
11.303	111.82	96.6668	5.0690	8.942
11.328	111.81	96.6666	5.0690	8.922
11.353	111.80	96.6663	5.0690	8.902
11.378	111.80	96.6661	5.0690	8.882
11.403	111.79	96.6659	5.0689	8.862
11.428	111.78	96.6657	5.0689	8.841
11.453	111.78	96.6655	5.0689	8.822
11.478	111.78	96.6653	5.0689	8.803
11.503	111.77	96.6652	5.0689	8.788
[...]
118.803	949.42	-2.3644	-0.1240	86.632
118.812	949.42	-2.3644	-0.1240	86.640
118.820	949.42	-2.3644	-0.1240	86.647
118.828	949.42	-2.3645	-0.1240	86.655
118.837	949.42	-2.3645	-0.1240	86.662
118.845	949.42	-2.3646	-0.1240	86.670
118.853	949.42	-2.3646	-0.1240	86.678
118.862	949.42	-2.3647	-0.1240	86.687
118.870	949.42	-2.3647	-0.1240	86.694
118.878	949.42	-2.3647	-0.1240	86.701
118.887	949.42	-2.3648	-0.1240	86.708
118.895	949.42	-2.3649	-0.1240	86.715
118.903	949.42	-2.3649	-0.1240	86.722
118.912	949.42	-2.3650	-0.1240	86.731
118.920	949.42	-2.3651	-0.1240	86.740
118.928	949.42	-2.3652	-0.1240	86.748
118.937	949.42	-2.3653	-0.1240	86.756
118.945	949.42	-2.3653	-0.1240	86.763
118.953	949.42	-2.3654	-0.1240	86.771
118.962	949.42	-2.3655	-0.1240	86.779
118.970	949.43	-2.3656	-0.1240	86.788
118.978	949.43	-2.3657	-0.1241	86.797
118.987	949.43	-2.3658	-0.1241	86.805
118.995	949.43	-2.3658	-0.1241	86.813
119.003	949.43	-2.3659	-0.1241	86.820
119.012	949.43	-2.3660	-0.1241	86.827
119.020	949.43	-2.3660	-0.1241	86.834
119.028	949.43	-2.3661	-0.1241	86.843
119.037	949.43	-2.3661	-0.1241	86.851
119.045	949.43	-2.3662	-0.1241	86.859
119.053	949.43	-2.3662	-0.1241	86.867
119.062	949.43	-2.3662	-0.1241	86.873
119.070	949.43	-2.3662	-0.1241	86.880
119.078	949.43	-2.3663	-0.1241	86.887
119.087	949.43	-2.3663	-0.1241	86.893
119.095	949.43	-2.3663	-0.1241	86.899
119.103	949.43	-2.3664	-0.1241	86.905
119.112	949.43	-2.3664	-0.1241	86.911
119.120	949.43	-2.3665	-0.1241	86.916
119.128	949.43	-2.3665	-0.1241	86.922
119.137	949.43	-2.3665	-0.1241	86.928
119.145	949.43	-2.3666	-0.1241	86.934
119.153	949.44	-2.3667	-0.1241	86.939
119.162	949.44	-2.3667	-0.1241	86.945
119.170	949.44	-2.3668	-0.1241	86.951
119.178	949.44	-2.3668	-0.1241	86.957
119.187	949.44	-2.3669	-0.1241	86.963
119.195	949.44	-2.3669	-0.1241	86.969
119.203	949.44	-2.3669	-0.1241	86.976
119.212	949.44	-2.3670	-0.1241	86.982
119.220	949.44	-2.3670	-0.1241	86.989
119.228	949.44	-2.3670	-0.1241	86.995
119.237	949.44	-2.3671	-0.1241	87.002
119.245	949.44	-2.3671	-0.1241	87.009
119.253	949.44	-2.3671	-0.1241	87.016
119.262	949.44	-2.3672	-0.1241	87.024
119.270	949.44	-2.3672	-0.1241	87.031
119.278	949.44	-2.3673	-0.1241	87.039
119.287	949.44	-2.3673	-0.1241	87.047
119.295	949.44	-2.3674	-0.1241	87.055
119.303	949.44	-2.3675	-0.1241	87.063
119.312	949.44	-2.3676	-0.1242	87.073
119.320	949.44	-2.3677	-0.1242	87.081
119.328	949.44	-2.3678	-0.1242	87.090
119.337	949.45	-2.3679	-0.1242	87.098
119.345	949.45	-2.3680	-0.1242	87.106
119.353	949.45	-2.3681	-0.1242	87.114
119.362	949.45	-2.3681	-0.1242	87.122
119.370	949.45	-2.3682	-0.1242	87.129
119.378	949.45	-2.3682	-0.1242	87.136
119.387	949.45	-2.3683	-0.1242	87.142
119.395	949.45	-2.3683	-0.1242	87.148
119.403	949.45	-2.3683	-0.1242	87.154
119.412	949.45	-2.3684	-0.1242	87.161
119.420	949.45	-2.3684	-0.1242	87.168
119.428	949.45	-2.3685	-0.1242	87.174
119.437	949.45	-2.3685	-0.1242	87.180
119.445	949.45	-2.3686	-0.1242	87.186
119.453	949.45	-2.3686	-0.1242	87.194
119.462	949.45	-2.3687	-0.1242	87.202
119.470	949.45	-2.3687	-0.1242	87.211
119.478	949.45	-2.3688	-0.1242	87.220
119.487	949.45	-2.3688	-0.1242	87.228
119.495	949.45	-2.3689	-0.1242	87.237
119.503	949.45	-2.3689	-0.1242	87.245
119.512	949.45	-2.3690	-0.1242	87.253
119.520	949.45	-2.3690	-0.1242	87.262
119.528	949.45	-2.3691	-0.1242	87.271
119.537	949.45	-2.3691	-0.1242	87.278
119.545	949.45	-2.3692	-0.1242	87.285
119.553	949.45	-2.3693	-0.1242	87.291
119.562	949.45	-2.3693	-0.1242	87.296
119.570	949.46	-2.3694	-0.1242	87.302
119.578	949.46	-2.3695	-0.1243	87.307
119.587	949.46	-2.3696	-0.1243	87.313
119.595	949.46	-2.3697	-0.1243	87.318
119.603	949.46	-2.3698	-0.1243	87.323
119.612	949.46	-2.3698	-0.1243	87.328
119.620	949.46	-2.3699	-0.1243	87.332
119.628	949.46	-2.3700	-0.1243	87.337
119.637	949.46	-2.3701	-0.1243	87.341
119.645	949.46	-2.3701	-0.1243	87.346
119.653	949.46	-2.3702	-0.1243	87.350
119.662	949.46	-2.3703	-0.1243	87.354
119.670	949.46	-2.3703	-0.1243	87.359
119.678	949.46	-2.3704	-0.1243	87.363
119.687	949.46	-2.3705	-0.1243	87.369
119.695	949.46	-2.3705	-0.1243	87.374
119.703	949.46	-2.3706	-0.1243	87.379
119.712	949.46	-2.3707	-0.1243	87.385
119.720	949.46	-2.3707	-0.1243	87.392
119.728	949.46	-2.3708	-0.1243	87.399
119.737	949.46	-2.3709	-0.1243	87.406
119.745	949.46	-2.3709	-0.1243	87.413
119.753	949.46	-2.3710	-0.1243	87.421
119.762	949.46	-2.3711	-0.1243	87.428
119.770	949.46	-2.3711	-0.1243	87.434
119.778	949.46	-2.3712	-0.1243	87.440
119.787	949.46	-2.3713	-0.1243	87.446
119.795	949.46	-2.3713	-0.1243	87.451
119.803	949.46	-2.3714	-0.1244	87.457
119.812	949.46	-2.3715	-0.1244	87.463
119.820	949.46	-2.3715	-0.1244	87.469
119.828	949.46	-2.3716	-0.1244	87.475
119.837	949.47	-2.3717	-0.1244	87.480
119.845	949.47	-2.3718	-0.1244	87.487
119.853	949.47	-2.3718	-0.1244	87.494
119.862	949.47	-2.3719	-0.1244	87.502
119.870	949.47	-2.3720	-0.1244	87.509
119.878	949.47	-2.3721	-0.1244	87.517
119.887	949.47	-2.3722	-0.1244	87.523
119.895	949.47	-2.3722	-0.1244	87.530
119.903	949.47	-2.3723	-0.1244	87.536
119.912	949.47	-2.3724	-0.1244	87.543
119.920	949.47	-2.3725	-0.1244	87.549
119.928	949.47	-2.3726	-0.1244	87.555
119.937	949.47	-2.3726	-0.1244	87.560
119.945	949.47	-2.3727	-0.1244	87.565
119.953	949.47	-2.3728	-0.1244	87.571
119.962	949.47	-2.3728	-0.1244	87.577
119.970	949.47	-2.3729	-0.1244	87.583
119.978	949.47	-2.3729	-0.1244	87.589
119.987	949.47	-2.3730	-0.1244	87.595
119.995	949.47	-2.3730	-0.1244	87.600
120.003	949.47	-2.3731	-0.1244	87.606
120.012	949.47	-2.3732	-0.1244	87.611
120.020	949.47	-2.3732	-0.1244	87.617
120.028	949.47	-2.3733	-0.1245	87.623
120.037	949.47	-2.3733	-0.1245	87.628
120.045	949.47	-2.3734	-0.1245	87.633
120.053	949.47	-2.3735	-0.1245	87.638
120.062	949.47	-2.3735	-0.1245	87.643
120.070	949.47	-2.3735	-0.1245	87.648
120.078	949.47	-2.3736	-0.1245	87.653
120.087	949.47	-2.3736	-0.1245	87.659
120.095	949.47	-2.3736	-0.1245	87.664
120.103	949.47	-2.3737	-0.1245	87.669
120.112	949.47	-2.3737	-0.1245	87.674
120.120	949.48	-2.3737	-0.1245	87.679
120.128	949.48	-2.3738	-0.1245	87.683
120.137	949.48	-2.3738	-0.1245	87.688
120.145	949.48	-2.3739	-0.1245	87.693
120.153	949.48	-2.3739	-0.1245	87.697
120.162	949.48	-2.3739	-0.1245	87.702
120.170	949.48	-2.3740	-0.1245	87.706
120.178	949.48	-2.3740	-0.1245	87.710
120.187	949.48	-2.3741	-0.1245	87.715
120.195	949.48	-2.3741	-0.1245	87.720
120.203	949.48	-2.3742	-0.1245	87.726
120.212	949.48	-2.3743	-0.1245	87.732
120.220	949.48	-2.3743	-0.1245	87.738
120.228	949.48	-2.3744	-0.1245	87.744
120.237	949.48	-2.3744	-0.1245	87.750
120.245	949.48	-2.3745	-0.1245	87.755
120.253	949.48	-2.3745	-0.1245	87.761
120.262	949.48	-2.3746	-0.1245	87.766
120.270	949.48	-2.3746	-0.1245	87.772
120.278	949.48	-2.3747	-0.1245	87.777
120.287	949.48	-2.3748	-0.1245	87.781
120.295	949.48	-2.3748	-0.1245	87.785
120.303	949.48	-2.3749	-0.1245	87.789
120.312	949.48	-2.3749	-0.1245	87.794
120.320	949.48	-2.3750	-0.1245	87.799
120.328	949.48	-2.3750	-0.1245	87.805
120.337	949.48	-2.3751	-0.1245	87.810
120.345	949.48	-2.3752	-0.1245	87.815
120.353	949.48	-2.3752	-0.1246	87.820
120.362	949.48	-2.3753	-0.1246	87.825
120.370	949.48	-2.3754	-0.1246	87.830
120.378	949.48	-2.3754	-0.1246	87.836
120.387	949.48	-2.3755	-0.1246	87.841
120.395	949.48	-2.3755	-0.1246	87.846
120.403	949.48	-2.3756	-0.1246	87.851
120.412	949.48	-2.3757	-0.1246	87.857
120.420	949.48	-2.3757	-0.1246	87.862
120.428	949.48	-2.3758	-0.1246	87.868
120.437	949.48	-2.3759	-0.1246	87.873
120.445	949.48	-2.3759	-0.1246	87.878
120.453	949.48	-2.3760	-0.1246	87.884
120.462	949.48	-2.3761	-0.1246	87.891
120.470	949.48	-2.3761	-0.1246	87.897
120.478	949.49	-2.3762	-0.1246	87.904
120.487	949.49	-2.3763	-0.1246	87.912
120.495	949.49	-2.3763	-0.1246	87.919
120.503	949.49	-2.3764	-0.1246	87.926
120.512	949.49	-2.3764	-0.1246	87.933
120.520	949.49	-2.3765	-0.1246	87.940
120.528	949.49	-2.3766	-0.1246	87.947
120.537	949.49	-2.3766	-0.1246	87.953
120.545	949.49	-2.3767	-0.1246	87.959
120.553	949.49	-2.3767	-0.1246	87.964
120.562	949.49	-2.3768	-0.1246	87.969
120.570	949.49	-2.3768	-0.1246	87.972
120.578	949.49	-2.3769	-0.1246	87.976
120.587	949.49	-2.3770	-0.1246	87.979
120.595	949.49	-2.3770	-0.1246	87.982
120.603	949.49	-2.3771	-0.1246	87.986
120.612	949.49	-2.3771	-0.1247	87.989
120.620	949.49	-2.3772	-0.1247	87.993
120.628	949.49	-2.3773	-0.1247	87.996
120.637	949.49	-2.3773	-0.1247	88.000
120.645	949.49	-2.3774	-0.1247	88.003
120.653	949.49	-2.3775	-0.1247	88.006
120.662	949.49	-2.3776	-0.1247	88.010
120.670	949.49	-2.3776	-0.1247	88.013
120.678	949.49	-2.3777	-0.1247	88.016
120.687	949.49	-2.3778	-0.1247	88.020
120.695	949.49	-2.3778	-0.1247	88.023
120.703	949.49	-2.3779	-0.1247	88.026
120.712	949.49	-2.3780	-0.1247	88.029
120.720	949.49	-2.3780	-0.1247	88.033
120.728	949.49	-2.3781	-0.1247	88.037
120.737	949.49	-2.3781	-0.1247	88.041
120.745	949.49	-2.3782	-0.1247	88.045
120.753	949.49	-2.3782	-0.1247	88.049
120.762	949.49	-2.3783	-0.1247	88.053
120.770	949.50	-2.3784	-0.1247	88.056
120.778	949.50	-2.3785	-0.1247	88.060
120.787	949.50	-2.3785	-0.1247	88.064
120.795	949.50	-2.3786	-0.1247	88.069
120.803	949.50	-2.3787	-0.1247	88.072
120.812	949.50	-2.3788	-0.1247	88.076
120.820	949.50	-2.3789	-0.1247	88.079
120.828	949.50	-2.3790	-0.1247	88.083
120.837	949.50	-2.3791	-0.1248	88.086
120.845	949.50	-2.3792	-0.1248	88.090
120.853	949.50	-2.3793	-0.1248	88.093
120.862	949.50	-2.3794	-0.1248	88.097
120.870	949.50	-2.3795	-0.1248	88.100
120.878	949.50	-2.3796	-0.1248	88.102
120.887	949.50	-2.3796	-0.1248	88.105
120.895	949.50	-2.3797	-0.1248	88.108
120.903	949.50	-2.3798	-0.1248	88.111
120.912	949.50	-2.3799	-0.1248	88.114
120.920	949.50	-2.3799	-0.1248	88.116
120.928	949.50	-2.3800	-0.1248	88.120
120.937	949.50	-2.3800	-0.1248	88.124
120.945	949.50	-2.3801	-0.1248	88.128
120.953	949.50	-2.3801	-0.1248	88.132
120.962	949.50	-2.3802	-0.1248	88.137
120.970	949.50	-2.3802	-0.1248	88.142
120.978	949.50	-2.3803	-0.1248	88.146
120.987	949.50	-2.3803	-0.1248	88.151
120.995	949.50	-2.3804	-0.1248	88.155
121.003	949.50	-2.3804	-0.1248	88.160
121.012	949.50	-2.3805	-0.1248	88.164
121.020	949.50	-2.3805	-0.1248	88.167
121.028	949.50	-2.3806	-0.1248	88.170
121.037	949.50	-2.3806	-0.1248	88.173
121.045	949.50	-2.3807	-0.1248	88.175
121.053	949.50	-2.3807	-0.1248	88.178
121.062	949.50	-2.3807	-0.1248	88.181
121.070	949.50	-2.3808	-0.1248	88.185
121.078	949.50	-2.3808	-0.1248	88.189
121.087	949.50	-2.3809	-0.1248	88.192
121.095	949.50	-2.3809	-0.1249	88.196
121.103	949.50	-2.3810	-0.1249	88.200
121.112	949.50	-2.3810	-0.1249	88.204
121.120	949.50	-2.3811	-0.1249	88.207
121.128	949.51	-2.3811	-0.1249	88.211
121.137	949.51	-2.3812	-0.1249	88.214
121.145	949.51	-2.3812	-0.1249	88.216
121.153	949.51	-2.3812	-0.1249	88.219
121.162	949.51	-2.3813	-0.1249	88.222
121.170	949.51	-2.3813	-0.1249	88.224
121.178	949.51	-2.3814	-0.1249	88.227
121.187	949.51	-2.3814	-0.1249	88.230
121.195	949.51	-2.3815	-0.1249	88.234
121.203	949.51	-2.3816	-0.1249	88.237
121.212	949.51	-2.3816	-0.1249	88.240
121.220	949.51	-2.3817	-0.1249	88.244
121.228	949.51	-2.3818	-0.1249	88.247
121.237	949.51	-2.3819	-0.1249	88.250
121.245	949.51	-2.3820	-0.1249	88.253
121.253	949.51	-2.3821	-0.1249	88.256
121.262	949.51	-2.3821	-0.1249	88.260
121.270	949.51	-2.3822	-0.1249	88.263
121.278	949.51	-2.3823	-0.1249	88.266
121.287	949.51	-2.3824	-0.1249	88.269
121.295	949.51	-2.3825	-0.1249	88.273
121.303	949.51	-2.3826	-0.1249	88.276
121.312	949.51	-2.3827	-0.1249	88.280
121.320	949.51	-2.3828	-0.1249	88.285
121.328	949.51	-2.3829	-0.1250	88.289
121.337	949.51	-2.3830	-0.1250	88.293
121.345	949.51	-2.3831	-0.1250	88.298
121.353	949.51	-2.3831	-0.1250	88.302
121.362	949.51	-2.3832	-0.1250	88.306
121.370	949.51	-2.3833	-0.1250	88.310
121.378	949.51	-2.3834	-0.1250	88.315
121.387	949.51	-2.3834	-0.1250	88.320
121.395	949.51	-2.3835	-0.1250	88.325
121.403	949.51	-2.3836	-0.1250	88.329
121.412	949.51	-2.3836	-0.1250	88.334
121.420	949.51	-2.3837	-0.1250	88.338
121.428	949.51	-2.3837	-0.1250	88.343
121.437	949.51	-2.3837	-0.1250	88.348
121.445	949.51	-2.3838	-0.1250	88.352
121.453	949.51	-2.3838	-0.1250	88.357
121.462	949.51	-2.3839	-0.1250	88.361
121.470	949.51	-2.3840	-0.1250	88.365
121.478	949.51	-2.3840	-0.1250	88.369
121.487	949.51	-2.3840	-0.1250	88.373
121.495	949.51	-2.3841	-0.1250	88.377
121.503	949.51	-2.3841	-0.1250	88.380
121.512	949.51	-2.3842	-0.1250	88.384
121.520	949.51	-2.3842	-0.1250	88.387
121.528	949.51	-2.3843	-0.1250	88.390
121.537	949.51	-2.3843	-0.1250	88.392
121.545	949.51	-2.3843	-0.1250	88.395
121.553	949.51	-2.3844	-0.1250	88.397
121.562	949.51	-2.3844	-0.1250	88.399
121.570	949.51	-2.3845	-0.1250	88.402
121.578	949.51	-2.3845	-0.1250	88.403
121.587	949.51	-2.3846	-0.1250	88.405
121.595	949.51	-2.3847	-0.1250	88.407
121.603	949.51	-2.3847	-0.1250	88.409
121.612	949.51	-2.3848	-0.1251	88.411
121.620	949.51	-2.3848	-0.1251	88.413
121.628	949.51	-2.3849	-0.1251	88.415
121.637	949.51	-2.3849	-0.1251	88.417
121.645	949.51	-2.3850	-0.1251	88.420
121.653	949.51	-2.3851	-0.1251	88.423
121.662	949.51	-2.3851	-0.1251	88.426
121.670	949.51	-2.3852	-0.1251	88.430
121.678	949.51	-2.3853	-0.1251	88.433
121.687	949.51	-2.3853	-0.1251	88.437
121.695	949.51	-2.3854	-0.1251	88.443
121.703	949.51	-2.3855	-0.1251	88.448
121.712	949.51	-2.3856	-0.1251	88.453
121.720	949.51	-2.3856	-0.1251	88.459
121.728	949.52	-2.3857	-0.1251	88.464
121.737	949.52	-2.3857	-0.1251	88.468
121.745	949.52	-2.3858	-0.1251	88.472
121.753	949.52	-2.3858	-0.1251	88.476
121.762	949.52	-2.3858	-0.1251	88.480
121.770	949.52	-2.3859	-0.1251	88.483
121.778	949.52	-2.3859	-0.1251	88.485
121.787	949.52	-2.3859	-0.1251	88.487
121.795	949.52	-2.3860	-0.1251	88.488
121.803	949.52	-2.3860	-0.1251	88.490
121.812	949.52	-2.3861	-0.1251	88.492
121.820	949.52	-2.3861	-0.1251	88.494
121.828	949.52	-2.3862	-0.1251	88.495
121.837	949.52	-2.3862	-0.1251	88.497
121.845	949.52	-2.3863	-0.1251	88.499
121.853	949.52	-2.3863	-0.1251	88.501
121.862	949.52	-2.3863	-0.1251	88.503
121.870	949.52	-2.3864	-0.1251	88.506
121.878	949.52	-2.3864	-0.1251	88.508
121.887	949.52	-2.3865	-0.1251	88.511
121.895	949.52	-2.3865	-0.1251	88.513
121.903	949.52	-2.3865	-0.1251	88.516
121.912	949.52	-2.3866	-0.1251	88.519
121.920	949.52	-2.3866	-0.1251	88.521
121.928	949.52	-2.3867	-0.1252	88.524
121.937	949.52	-2.3867	-0.1252	88.527
121.945	949.52	-2.3868	-0.1252	88.530
121.953	949.52	-2.3868	-0.1252	88.532
121.962	949.52	-2.3869	-0.1252	88.535
121.970	949.52	-2.3869	-0.1252	88.537
121.978	949.52	-2.3870	-0.1252	88.539
121.987	949.52	-2.3870	-0.1252	88.541
121.995	949.52	-2.3871	-0.1252	88.543
122.003	949.52	-2.3872	-0.1252	88.546
122.012	949.52	-2.3872	-0.1252	88.548
122.020	949.52	-2.3873	-0.1252	88.549
122.028	949.52	-2.3874	-0.1252	88.551
122.037	949.52	-2.3874	-0.1252	88.554
122.045	949.52	-2.3875	-0.1252	88.556
122.053	949.52	-2.3876	-0.1252	88.558
122.062	949.52	-2.3876	-0.1252	88.560
122.070	949.52	-2.3877	-0.1252	88.561
122.078	949.52	-2.3878	-0.1252	88.563
122.087	949.52	-2.3879	-0.1252	88.566
122.095	949.52	-2.3879	-0.1252	88.568
122.103	949.52	-2.3880	-0.1252	88.570
122.112	949.52	-2.3881	-0.1252	88.573
122.120	949.52	-2.3882	-0.1252	88.575
122.128	949.52	-2.3883	-0.1252	88.577
122.137	949.52	-2.3883	-0.1252	88.580
122.145	949.52	-2.3884	-0.1252	88.583
122.153	949.52	-2.3885	-0.1252	88.587
122.162	949.52	-2.3885	-0.1252	88.590
122.170	949.52	-2.3886	-0.1253	88.593
122.178	949.52	-2.3887	-0.1253	88.595
122.187	949.52	-2.3887	-0.1253	88.598
122.195	949.52	-2.3888	-0.1253	88.601
122.203	949.52	-2.3889	-0.1253	88.603
122.212	949.52	-2.3890	-0.1253	88.605
122.220	949.52	-2.3890	-0.1253	88.607
122.228	949.52	-2.3891	-0.1253	88.610
122.237	949.52	-2.3892	-0.1253	88.612
122.245	949.52	-2.3892	-0.1253	88.615
122.253	949.52	-2.3893	-0.1253	88.618
122.262	949.52	-2.3893	-0.1253	88.621
122.270	949.52	-2.3894	-0.1253	88.624
122.278	949.52	-2.3895	-0.1253	88.627
122.287	949.52	-2.3895	-0.1253	88.630
122.295	949.52	-2.3896	-0.1253	88.633
122.303	949.52	-2.3897	-0.1253	88.636
122.312	949.52	-2.3897	-0.1253	88.638
122.320	949.52	-2.3898	-0.1253	88.641
122.328	949.52	-2.3898	-0.1253	88.644
122.337	949.53	-2.3899	-0.1253	88.647
122.345	949.52	-2.3900	-0.1253	88.650
122.353	949.52	-2.3900	-0.1253	88.653
122.362	949.53	-2.3901	-0.1253	88.656
122.370	949.53	-2.3901	-0.1253	88.659
122.378	949.53	-2.3902	-0.1253	88.663
122.387	949.53	-2.3902	-0.1253	88.667
122.395	949.53	-2.3903	-0.1253	88.670
122.403	949.53	-2.3903	-0.1253	88.673
122.412	949.53	-2.3904	-0.1253	88.677
122.420	949.53	-2.3904	-0.1253	88.680
122.428	949.53	-2.3905	-0.1254	88.683
122.437	949.53	-2.3905	-0.1254	88.686
122.445	949.53	-2.3906	-0.1254	88.688
122.453	949.53	-2.3906	-0.1254	88.691
122.462	949.53	-2.3907	-0.1254	88.693
122.470	949.53	-2.3907	-0.1254	88.695
122.478	949.53	-2.3908	-0.1254	88.697
122.487	949.53	-2.3908	-0.1254	88.700
122.495	949.53	-2.3909	-0.1254	88.702
122.503	949.53	-2.3910	-0.1254	88.704
122.512	949.53	-2.3910	-0.1254	88.707
122.520	949.53	-2.3911	-0.1254	88.710
122.528	949.53	-2.3912	-0.1254	88.712
122.537	949.53	-2.3913	-0.1254	88.715
122.545	949.53	-2.3914	-0.1254	88.718
122.553	949.53	-2.3915	-0.1254	88.720
122.562	949.53	-2.3915	-0.1254	88.723
122.570	949.53	-2.3916	-0.1254	88.725
122.578	949.53	-2.3917	-0.1254	88.728
122.587	949.53	-2.3917	-0.1254	88.731
122.595	949.53	-2.3918	-0.1254	88.733
122.603	949.53	-2.3919	-0.1254	88.736
122.612	949.53	-2.3920	-0.1254	88.739
122.620	949.53	-2.3921	-0.1254	88.742
122.628	949.53	-2.3921	-0.1254	88.745
122.637	949.53	-2.3922	-0.1254	88.748
122.645	949.53	-2.3923	-0.1254	88.751
122.653	949.53	-2.3924	-0.1255	88.754
122.662	949.53	-2.3925	-0.1255	88.758
122.670	949.53	-2.3925	-0.1255	88.761
122.678	949.53	-2.3926	-0.1255	88.764
122.687	949.53	-2.3927	-0.1255	88.767
122.695	949.53	-2.3928	-0.1255	88.770
122.703	949.53	-2.3928	-0.1255	88.773
122.712	949.53	-2.3929	-0.1255	88.776
122.720	949.53	-2.3930	-0.1255	88.779
122.728	949.53	-2.3931	-0.1255	88.782
122.737	949.53	-2.3931	-0.1255	88.784
122.745	949.53	-2.3932	-0.1255	88.788
122.753	949.53	-2.3933	-0.1255	88.791
122.762	949.53	-2.3934	-0.1255	88.795
122.770	949.53	-2.3934	-0.1255	88.798
122.778	949.53	-2.3935	-0.1255	88.802
122.787	949.53	-2.3935	-0.1255	88.806
122.795	949.53	-2.3936	-0.1255	88.810
122.803	949.53	-2.3937	-0.1255	88.813
122.812	949.53	-2.3937	-0.1255	88.817
122.820	949.53	-2.3938	-0.1255	88.820
122.828	949.53	-2.3938	-0.1255	88.824
122.837	949.53	-2.3939	-0.1255	88.827
122.845	949.53	-2.3939	-0.1255	88.831
122.853	949.53	-2.3940	-0.1255	88.835
122.862	949.53	-2.3941	-0.1255	88.838
122.870	949.53	-2.3942	-0.1255	88.842
122.878	949.53	-2.3942	-0.1255	88.845
122.887	949.53	-2.3943	-0.1256	88.849
122.895	949.53	-2.3943	-0.1256	88.852
122.903	949.53	-2.3944	-0.1256	88.855
122.912	949.53	-2.3945	-0.1256	88.858
122.920	949.53	-2.3945	-0.1256	88.860
122.928	949.53	-2.3946	-0.1256	88.862
122.937	949.53	-2.3947	-0.1256	88.864
122.945	949.53	-2.3947	-0.1256	88.866
122.953	949.53	-2.3948	-0.1256	88.868
122.962	949.53	-2.3949	-0.1256	88.870
122.970	949.53	-2.3949	-0.1256	88.872
122.978	949.53	-2.3950	-0.1256	88.874
122.987	949.53	-2.3951	-0.1256	88.876
122.995	949.53	-2.3952	-0.1256	88.877
123.003	949.53	-2.3952	-0.1256	88.879
123.012	949.53	-2.3953	-0.1256	88.882
123.020	949.53	-2.3954	-0.1256	88.884
123.028	949.53	-2.3955	-0.1256	88.886
123.037	949.53	-2.3956	-0.1256	88.888
123.045	949.53	-2.3957	-0.1256	88.890
123.053	949.53	-2.3958	-0.1256	88.892
123.062	949.54	-2.3958	-0.1256	88.894
123.070	949.53	-2.3959	-0.1256	88.895
123.078	949.54	-2.3960	-0.1256	88.897
123.087	949.54	-2.3961	-0.1256	88.899
123.095	949.54	-2.3962	-0.1256	88.901
123.103	949.54	-2.3962	-0.1257	88.903
123.112	949.54	-2.3963	-0.1257	88.904
123.120	949.54	-2.3964	-0.1257	88.906
123.128	949.54	-2.3964	-0.1257	88.908
123.137	949.54	-2.3965	-0.1257	88.910
123.145	949.54	-2.3965	-0.1257	88.912
123.153	949.54	-2.3966	-0.1257	88.914
123.162		-2.3966	-0.1257
123.170		-2.3967	-0.1257
123.178		-2.3967	-0.1257
123.187		-2.3967	-0.1257
123.195		-2.3968	-0.1257