File: PSO Kinetics/data/softwood-10Kmin_3.txt
Filename	softwood-10Kmin_3
Instrument name	0650-0369 (192.168.1.2)
Operator	ca527
rundate	1/9/2023
Sample name	softwood-10Kmin_3
proceduresegments	Select Gas: Gas 1 ; Ramp 10.00 °C/min to 110.00 °C; Isothermal 30.0 min; Ramp 10.00 °C/min to 900.00 °C; Isothermal 30.0 min; Select Gas: Gas 2 ; Ramp 10.00 °C/min to 950.00 °C; Isothermal 10.0 min; Data Off ; Equilibrate 30.00 °C
[step]
Ramp 10.00 °C/min to 110.00 °C
Time	Temperature	Weight	Weight	Heat Flow
min	°C	%	mg	mW
0.003		100.0118	3.6558
0.012		100.0315	3.6565
0.020		100.0486	3.6572
0.028		100.0614	3.6576
0.037		100.0703	3.6580
0.045	22.70	100.0757	3.6582	-27.375
0.053	22.73	100.0785	3.6583	-27.354
0.062	22.77	100.0797	3.6583	-27.337
0.070	22.80	100.0796	3.6583	-27.322
0.078	22.83	100.0785	3.6583	-27.308
0.087	22.87	100.0766	3.6582	-27.294
0.095	22.90	100.0743	3.6581	-27.281
0.103	22.93	100.0719	3.6580	-27.268
0.112	22.96	100.0694	3.6579	-27.257
0.120	23.00	100.0668	3.6578	-27.247
0.128	23.03	100.0640	3.6577	-27.236
0.137	23.06	100.0612	3.6576	-27.226
0.145	23.09	100.0583	3.6575	-27.216
0.153	23.12	100.0554	3.6574	-27.205
0.162	23.16	100.0524	3.6573	-27.195
0.170	23.19	100.0493	3.6572	-27.185
0.178	23.22	100.0463	3.6571	-27.176
0.187	23.25	100.0431	3.6570	-27.166
0.195	23.28	100.0399	3.6568	-27.156
0.203	23.32	100.0367	3.6567	-27.145
0.212	23.35	100.0334	3.6566	-27.135
0.220	23.38	100.0301	3.6565	-27.124
0.228	23.41	100.0268	3.6564	-27.114
0.237	23.44	100.0234	3.6562	-27.104
0.245	23.47	100.0199	3.6561	-27.093
0.253	23.50	100.0164	3.6560	-27.082
0.262	23.53	100.0128	3.6559	-27.072
0.270	23.56	100.0092	3.6557	-27.062
0.278	23.60	100.0054	3.6556	-27.052
0.287	23.63	100.0016	3.6554	-27.042
0.295	23.66	99.9977	3.6553	-27.033
0.303	23.69	99.9937	3.6552	-27.023
0.312	23.72	99.9896	3.6550	-27.013
0.320	23.75	99.9854	3.6549	-27.004
0.328	23.78	99.9812	3.6547	-26.995
0.337	23.81	99.9768	3.6545	-26.986
0.345	23.84	99.9724	3.6544	-26.976
0.353	23.87	99.9679	3.6542	-26.967
0.362	23.90	99.9632	3.6540	-26.957
0.370	23.94	99.9585	3.6539	-26.947
0.378	23.97	99.9537	3.6537	-26.936
0.387	24.00	99.9489	3.6535	-26.926
0.395	24.03	99.9439	3.6533	-26.915
0.403	24.06	99.9388	3.6532	-26.904
0.412	24.09	99.9337	3.6530	-26.894
0.420	24.13	99.9285	3.6528	-26.885
0.428	24.16	99.9231	3.6526	-26.877
0.437	24.19	99.9177	3.6524	-26.869
0.445	24.22	99.9121	3.6522	-26.861
0.453	24.25	99.9064	3.6520	-26.853
0.462	24.29	99.9006	3.6518	-26.847
0.470	24.32	99.8947	3.6515	-26.841
0.478	24.35	99.8887	3.6513	-26.835
0.487	24.39	99.8825	3.6511	-26.830
0.495	24.42	99.8762	3.6509	-26.825
0.503	24.46	99.8698	3.6506	-26.820
0.512	24.49	99.8633	3.6504	-26.816
0.520	24.53	99.8566	3.6501	-26.812
0.528	24.56	99.8499	3.6499	-26.808
0.537	24.60	99.8430	3.6497	-26.805
0.545	24.64	99.8361	3.6494	-26.803
0.553	24.67	99.8291	3.6491	-26.801
0.562	24.71	99.8220	3.6489	-26.798
0.570	24.75	99.8149	3.6486	-26.796
0.578	24.78	99.8076	3.6484	-26.795
0.587	24.82	99.8004	3.6481	-26.793
0.595	24.86	99.7931	3.6478	-26.792
0.603	24.90	99.7857	3.6476	-26.791
0.612	24.94	99.7784	3.6473	-26.790
0.620	24.98	99.7710	3.6470	-26.789
0.628	25.02	99.7637	3.6468	-26.789
0.637	25.06	99.7563	3.6465	-26.788
0.645	25.10	99.7489	3.6462	-26.788
0.653	25.14	99.7415	3.6459	-26.788
0.662	25.18	99.7342	3.6457	-26.789
0.670	25.23	99.7268	3.6454	-26.789
0.678	25.27	99.7195	3.6451	-26.789
0.687	25.31	99.7122	3.6449	-26.790
0.695	25.35	99.7049	3.6446	-26.790
0.703	25.40	99.6976	3.6443	-26.791
0.712	25.44	99.6904	3.6441	-26.792
0.720	25.49	99.6832	3.6438	-26.793
0.728	25.53	99.6761	3.6436	-26.793
0.737	25.58	99.6690	3.6433	-26.794
0.745	25.62	99.6620	3.6430	-26.795
0.753	25.67	99.6550	3.6428	-26.797
0.762	25.72	99.6481	3.6425	-26.798
0.770	25.76	99.6412	3.6423	-26.799
0.778	25.81	99.6344	3.6420	-26.800
0.787	25.86	99.6277	3.6418	-26.801
0.795	25.91	99.6210	3.6415	-26.803
0.803	25.96	99.6144	3.6413	-26.804
0.812	26.01	99.6078	3.6411	-26.805
0.820	26.06	99.6013	3.6408	-26.806
0.828	26.11	99.5949	3.6406	-26.807
0.837	26.16	99.5885	3.6403	-26.809
0.845	26.21	99.5822	3.6401	-26.810
0.853	26.26	99.5759	3.6399	-26.811
0.862	26.31	99.5697	3.6397	-26.811
0.870	26.37	99.5635	3.6394	-26.812
0.878	26.42	99.5574	3.6392	-26.813
0.887	26.47	99.5514	3.6390	-26.813
0.895	26.53	99.5454	3.6388	-26.813
0.903	26.58	99.5394	3.6386	-26.812
0.912	26.64	99.5336	3.6383	-26.811
0.920	26.69	99.5277	3.6381	-26.809
0.928	26.75	99.5220	3.6379	-26.807
0.937	26.81	99.5162	3.6377	-26.805
0.945	26.86	99.5106	3.6375	-26.803
0.953	26.92	99.5049	3.6373	-26.799
0.962	26.98	99.4994	3.6371	-26.794
0.970	27.04	99.4938	3.6369	-26.788
0.978	27.10	99.4883	3.6367	-26.782
0.987	27.15	99.4828	3.6365	-26.775
0.995	27.21	99.4774	3.6363	-26.767
1.003	27.27	99.4720	3.6361	-26.758
1.012	27.33	99.4666	3.6359	-26.748
1.020	27.40	99.4612	3.6357	-26.736
1.028	27.46	99.4559	3.6355	-26.724
1.037	27.52	99.4506	3.6353	-26.710
1.045	27.58	99.4453	3.6351	-26.698
1.053	27.64	99.4401	3.6349	-26.684
1.062	27.71	99.4348	3.6347	-26.669
1.070	27.77	99.4295	3.6345	-26.654
1.078	27.84	99.4242	3.6343	-26.639
1.087	27.90	99.4189	3.6341	-26.622
1.095	27.97	99.4136	3.6340	-26.604
1.103	28.03	99.4084	3.6338	-26.587
1.112	28.10	99.4031	3.6336	-26.569
1.120	28.16	99.3978	3.6334	-26.551
1.128	28.23	99.3925	3.6332	-26.532
1.137	28.30	99.3873	3.6330	-26.513
1.145	28.37	99.3820	3.6328	-26.495
1.153	28.44	99.3767	3.6326	-26.474
1.162	28.50	99.3714	3.6324	-26.454
1.170	28.57	99.3661	3.6322	-26.434
1.178	28.64	99.3608	3.6320	-26.414
1.187	28.71	99.3555	3.6318	-26.392
1.195	28.78	99.3502	3.6316	-26.369
1.203	28.85	99.3448	3.6314	-26.347
1.212	28.92	99.3394	3.6312	-26.325
1.220	29.00	99.3340	3.6310	-26.303
1.228	29.07	99.3286	3.6308	-26.279
1.237	29.14	99.3232	3.6307	-26.255
1.245	29.21	99.3178	3.6305	-26.230
1.253	29.29	99.3124	3.6303	-26.204
1.262	29.36	99.3069	3.6301	-26.179
1.270	29.43	99.3014	3.6299	-26.155
1.278	29.51	99.2960	3.6297	-26.130
1.287	29.58	99.2905	3.6295	-26.104
1.295	29.65	99.2850	3.6293	-26.077
1.303	29.73	99.2795	3.6291	-26.050
1.312	29.80	99.2740	3.6289	-26.022
1.320	29.88	99.2685	3.6287	-25.994
1.328	29.96	99.2629	3.6284	-25.966
1.337	30.03	99.2574	3.6282	-25.936
1.345	30.11	99.2518	3.6280	-25.906
1.353	30.19	99.2462	3.6278	-25.877
1.362	30.26	99.2406	3.6276	-25.845
1.370	30.34	99.2349	3.6274	-25.813
1.378	30.42	99.2293	3.6272	-25.781
1.387	30.50	99.2236	3.6270	-25.749
1.395	30.58	99.2179	3.6268	-25.717
1.403	30.66	99.2122	3.6266	-25.684
1.412	30.74	99.2064	3.6264	-25.651
1.420	30.82	99.2007	3.6262	-25.618
1.428	30.90	99.1949	3.6260	-25.585
1.437	30.98	99.1891	3.6257	-25.550
1.445	31.06	99.1833	3.6255	-25.517
1.453	31.14	99.1774	3.6253	-25.482
1.462	31.22	99.1716	3.6251	-25.447
1.470	31.30	99.1657	3.6249	-25.413
1.478	31.38	99.1597	3.6247	-25.377
1.487	31.46	99.1538	3.6245	-25.341
1.495	31.55	99.1478	3.6242	-25.304
1.503	31.63	99.1419	3.6240	-25.268
1.512	31.71	99.1359	3.6238	-25.230
1.520	31.79	99.1299	3.6236	-25.193
1.528	31.88	99.1239	3.6234	-25.155
1.537	31.96	99.1179	3.6231	-25.116
1.545	32.04	99.1119	3.6229	-25.077
1.553	32.13	99.1059	3.6227	-25.038
1.562	32.21	99.0999	3.6225	-24.998
1.570	32.30	99.0938	3.6223	-24.959
1.578	32.38	99.0877	3.6220	-24.919
1.587	32.47	99.0816	3.6218	-24.879
1.595	32.55	99.0755	3.6216	-24.838
1.603	32.64	99.0694	3.6214	-24.796
1.612	32.72	99.0632	3.6211	-24.754
1.620	32.81	99.0570	3.6209	-24.713
1.628	32.90	99.0508	3.6207	-24.672
1.637	32.98	99.0446	3.6205	-24.629
1.645	33.07	99.0383	3.6202	-24.588
1.653	33.16	99.0321	3.6200	-24.547
1.662	33.24	99.0258	3.6198	-24.504
1.670	33.33	99.0195	3.6196	-24.460
1.678	33.42	99.0133	3.6193	-24.417
1.687	33.50	99.0070	3.6191	-24.374
1.695	33.59	99.0007	3.6189	-24.331
1.703	33.68	98.9944	3.6186	-24.288
1.712	33.77	98.9880	3.6184	-24.244
1.720	33.85	98.9817	3.6182	-24.200
1.728	33.94	98.9753	3.6179	-24.154
1.737	34.03	98.9690	3.6177	-24.109
1.745	34.12	98.9626	3.6175	-24.064
1.753	34.21	98.9562	3.6172	-24.020
1.762	34.30	98.9499	3.6170	-23.973
1.770	34.39	98.9435	3.6168	-23.928
1.778	34.47	98.9371	3.6165	-23.883
1.787	34.56	98.9307	3.6163	-23.837
1.795	34.65	98.9242	3.6161	-23.791
1.803	34.74	98.9178	3.6158	-23.745
1.812	34.83	98.9114	3.6156	-23.699
1.820	34.92	98.9049	3.6154	-23.651
1.828	35.01	98.8984	3.6151	-23.603
1.837	35.10	98.8919	3.6149	-23.555
1.845	35.19	98.8854	3.6146	-23.507
1.853	35.28	98.8789	3.6144	-23.458
1.862	35.37	98.8723	3.6142	-23.409
1.870	35.46	98.8658	3.6139	-23.360
1.878	35.55	98.8593	3.6137	-23.310
1.887	35.64	98.8527	3.6135	-23.260
1.895	35.73	98.8461	3.6132	-23.210
1.903	35.83	98.8396	3.6130	-23.160
1.912	35.92	98.8330	3.6127	-23.110
1.920	36.01	98.8264	3.6125	-23.061
1.928	36.10	98.8197	3.6122	-23.012
1.937	36.19	98.8131	3.6120	-22.961
1.945	36.28	98.8065	3.6118	-22.910
1.953	36.37	98.7998	3.6115	-22.858
1.962	36.47	98.7931	3.6113	-22.806
1.970	36.56	98.7864	3.6110	-22.755
1.978	36.65	98.7797	3.6108	-22.703
1.987	36.74	98.7730	3.6105	-22.651
1.995	36.84	98.7662	3.6103	-22.599
2.003	36.93	98.7595	3.6100	-22.546
2.012	37.02	98.7528	3.6098	-22.493
2.020	37.11	98.7460	3.6096	-22.439
2.028	37.20	98.7392	3.6093	-22.386
2.037	37.30	98.7324	3.6091	-22.332
2.045	37.39	98.7257	3.6088	-22.278
2.053	37.48	98.7188	3.6086	-22.224
2.062	37.57	98.7120	3.6083	-22.169
2.070	37.67	98.7052	3.6081	-22.115
2.078	37.76	98.6983	3.6078	-22.060
2.087	37.85	98.6914	3.6076	-22.006
2.095	37.94	98.6845	3.6073	-21.952
2.103	38.04	98.6777	3.6071	-21.900
2.112	38.13	98.6708	3.6068	-21.846
2.120	38.22	98.6639	3.6065	-21.791
2.128	38.32	98.6570	3.6063	-21.737
2.137	38.41	98.6501	3.6060	-21.682
2.145	38.50	98.6432	3.6058	-21.626
2.153	38.60	98.6363	3.6055	-21.571
2.162	38.69	98.6293	3.6053	-21.515
2.170	38.78	98.6223	3.6050	-21.459
2.178	38.87	98.6153	3.6048	-21.402
2.187	38.97	98.6083	3.6045	-21.345
2.195	39.06	98.6013	3.6043	-21.288
2.203	39.15	98.5943	3.6040	-21.231
2.212	39.25	98.5872	3.6037	-21.175
2.220	39.34	98.5801	3.6035	-21.118
2.228	39.43	98.5730	3.6032	-21.063
2.237	39.52	98.5659	3.6030	-21.007
2.245	39.62	98.5588	3.6027	-20.949
2.253	39.71	98.5517	3.6024	-20.892
2.262	39.80	98.5445	3.6022	-20.835
2.270	39.90	98.5374	3.6019	-20.777
2.278	39.99	98.5303	3.6017	-20.720
2.287	40.08	98.5231	3.6014	-20.662
2.295	40.18	98.5159	3.6011	-20.603
2.303	40.27	98.5087	3.6009	-20.545
2.312	40.36	98.5015	3.6006	-20.486
2.320	40.46	98.4943	3.6004	-20.427
2.328	40.55	98.4871	3.6001	-20.370
2.337	40.64	98.4798	3.5998	-20.311
2.345	40.74	98.4725	3.5996	-20.254
2.353	40.83	98.4652	3.5993	-20.195
2.362	40.92	98.4579	3.5990	-20.137
2.370	41.02	98.4506	3.5988	-20.078
2.378	41.11	98.4433	3.5985	-20.021
2.387	41.20	98.4360	3.5982	-19.962
2.395	41.30	98.4286	3.5980	-19.904
2.403	41.39	98.4213	3.5977	-19.845
2.412	41.48	98.4139	3.5974	-19.785
2.420	41.58	98.4065	3.5971	-19.725
2.428	41.67	98.3991	3.5969	-19.665
2.437	41.76	98.3917	3.5966	-19.606
2.445	41.85	98.3842	3.5963	-19.547
2.453	41.95	98.3768	3.5961	-19.488
2.462	42.04	98.3693	3.5958	-19.429
2.470	42.13	98.3618	3.5955	-19.370
2.478	42.23	98.3543	3.5952	-19.311
2.487	42.32	98.3468	3.5950	-19.252
2.495	42.41	98.3394	3.5947	-19.194
2.503	42.50	98.3318	3.5944	-19.136
2.512	42.60	98.3243	3.5941	-19.078
2.520	42.69	98.3168	3.5939	-19.021
2.528	42.78	98.3093	3.5936	-18.961
2.537	42.87	98.3017	3.5933	-18.902
2.545	42.97	98.2941	3.5930	-18.842
2.553	43.06	98.2865	3.5928	-18.783
2.562	43.15	98.2790	3.5925	-18.724
2.570	43.25	98.2713	3.5922	-18.664
2.578	43.34	98.2637	3.5919	-18.604
2.587	43.43	98.2561	3.5916	-18.544
2.595	43.52	98.2484	3.5914	-18.483
2.603	43.61	98.2408	3.5911	-18.422
2.612	43.71	98.2331	3.5908	-18.363
2.620	43.80	98.2254	3.5905	-18.302
2.628	43.89	98.2178	3.5902	-18.243
2.637	43.98	98.2101	3.5900	-18.184
2.645	44.07	98.2024	3.5897	-18.123
2.653	44.17	98.1946	3.5894	-18.064
2.662	44.26	98.1869	3.5891	-18.005
2.670	44.35	98.1792	3.5888	-17.946
2.678	44.44	98.1714	3.5885	-17.886
2.687	44.53	98.1637	3.5883	-17.827
2.695	44.63	98.1560	3.5880	-17.767
2.703	44.72	98.1482	3.5877	-17.707
2.712	44.81	98.1404	3.5874	-17.647
2.720	44.90	98.1327	3.5871	-17.586
2.728	44.99	98.1249	3.5868	-17.527
2.737	45.08	98.1171	3.5866	-17.467
2.745	45.18	98.1092	3.5863	-17.406
2.753	45.27	98.1014	3.5860	-17.346
2.762	45.36	98.0936	3.5857	-17.286
2.770	45.45	98.0857	3.5854	-17.227
2.778	45.54	98.0778	3.5851	-17.167
2.787	45.63	98.0699	3.5848	-17.108
2.795	45.72	98.0620	3.5845	-17.047
2.803	45.82	98.0540	3.5843	-16.987
2.812	45.91	98.0461	3.5840	-16.926
2.820	46.00	98.0381	3.5837	-16.865
2.828	46.09	98.0302	3.5834	-16.806
2.837	46.18	98.0222	3.5831	-16.746
2.845	46.27	98.0143	3.5828	-16.687
2.853	46.36	98.0063	3.5825	-16.627
2.862	46.45	97.9983	3.5822	-16.568
2.870	46.54	97.9904	3.5819	-16.509
2.878	46.63	97.9824	3.5816	-16.450
2.887	46.72	97.9744	3.5813	-16.390
2.895	46.81	97.9664	3.5811	-16.332
2.903	46.90	97.9584	3.5808	-16.273
2.912	46.99	97.9504	3.5805	-16.214
2.920	47.08	97.9424	3.5802	-16.155
2.928	47.17	97.9344	3.5799	-16.095
2.937	47.26	97.9263	3.5796	-16.037
2.945	47.35	97.9183	3.5793	-15.978
2.953	47.44	97.9102	3.5790	-15.919
2.962	47.53	97.9022	3.5787	-15.860
2.970	47.62	97.8941	3.5784	-15.802
2.978	47.71	97.8860	3.5781	-15.743
2.987	47.80	97.8779	3.5778	-15.684
2.995	47.89	97.8698	3.5775	-15.625
3.003	47.98	97.8617	3.5772	-15.565
3.012	48.07	97.8535	3.5769	-15.507
3.020	48.16	97.8454	3.5766	-15.449
3.028	48.25	97.8373	3.5763	-15.391
3.037	48.34	97.8292	3.5760	-15.331
3.045	48.43	97.8211	3.5757	-15.272
3.053	48.52	97.8129	3.5754	-15.214
3.062	48.61	97.8048	3.5751	-15.156
3.070	48.70	97.7966	3.5748	-15.098
3.078	48.79	97.7885	3.5746	-15.040
3.087	48.88	97.7803	3.5743	-14.983
3.095	48.97	97.7722	3.5740	-14.925
3.103	49.05	97.7640	3.5737	-14.868
3.112	49.14	97.7559	3.5734	-14.809
3.120	49.23	97.7477	3.5731	-14.752
3.128	49.32	97.7396	3.5728	-14.695
3.137	49.41	97.7314	3.5725	-14.637
3.145	49.50	97.7233	3.5722	-14.578
3.153	49.59	97.7151	3.5719	-14.521
3.162	49.68	97.7070	3.5716	-14.464
3.170	49.76	97.6988	3.5713	-14.407
3.178	49.85	97.6907	3.5710	-14.349
3.187	49.94	97.6825	3.5707	-14.292
3.195	50.03	97.6744	3.5704	-14.236
3.203	50.12	97.6663	3.5701	-14.178
3.212	50.20	97.6581	3.5698	-14.121
3.220	50.29	97.6500	3.5695	-14.064
3.228	50.38	97.6418	3.5692	-14.008
3.237	50.47	97.6337	3.5689	-13.951
3.245	50.56	97.6255	3.5686	-13.894
3.253	50.64	97.6174	3.5683	-13.837
3.262	50.73	97.6092	3.5680	-13.780
3.270	50.82	97.6011	3.5677	-13.723
3.278	50.91	97.5929	3.5674	-13.667
3.287	51.00	97.5847	3.5671	-13.610
3.295	51.08	97.5766	3.5668	-13.555
3.303	51.17	97.5684	3.5665	-13.499
3.312	51.26	97.5603	3.5662	-13.442
3.320	51.35	97.5522	3.5659	-13.385
3.328	51.44	97.5440	3.5656	-13.330
3.337	51.52	97.5358	3.5653	-13.275
3.345	51.61	97.5276	3.5650	-13.220
3.353	51.70	97.5195	3.5647	-13.165
3.362	51.79	97.5113	3.5644	-13.110
3.370	51.87	97.5031	3.5641	-13.055
3.378	51.96	97.4949	3.5638	-13.000
3.387	52.05	97.4867	3.5635	-12.945
3.395	52.13	97.4786	3.5632	-12.891
3.403	52.22	97.4704	3.5629	-12.836
3.412	52.31	97.4622	3.5626	-12.780
3.420	52.40	97.4540	3.5623	-12.725
3.428	52.48	97.4459	3.5620	-12.670
3.437	52.57	97.4377	3.5617	-12.616
3.445	52.66	97.4296	3.5614	-12.560
3.453	52.74	97.4214	3.5611	-12.506
3.462	52.83	97.4133	3.5608	-12.451
3.470	52.92	97.4052	3.5605	-12.398
3.478	53.00	97.3970	3.5602	-12.343
3.487	53.09	97.3889	3.5599	-12.290
3.495	53.18	97.3808	3.5596	-12.236
3.503	53.27	97.3727	3.5594	-12.182
3.512	53.35	97.3646	3.5591	-12.129
3.520	53.44	97.3566	3.5588	-12.075
3.528	53.53	97.3485	3.5585	-12.022
3.537	53.61	97.3404	3.5582	-11.969
3.545	53.70	97.3324	3.5579	-11.916
3.553	53.79	97.3243	3.5576	-11.862
3.562	53.87	97.3163	3.5573	-11.809
3.570	53.96	97.3082	3.5570	-11.755
3.578	54.04	97.3001	3.5567	-11.701
3.587	54.13	97.2921	3.5564	-11.648
3.595	54.22	97.2840	3.5561	-11.594
3.603	54.30	97.2760	3.5558	-11.540
3.612	54.39	97.2679	3.5555	-11.486
3.620	54.48	97.2599	3.5552	-11.433
3.628	54.56	97.2518	3.5549	-11.380
3.637	54.65	97.2438	3.5546	-11.328
3.645	54.74	97.2358	3.5543	-11.277
3.653	54.82	97.2278	3.5541	-11.224
3.662	54.91	97.2198	3.5538	-11.172
3.670	54.99	97.2118	3.5535	-11.120
3.678	55.08	97.2039	3.5532	-11.068
3.687	55.17	97.1959	3.5529	-11.017
3.695	55.25	97.1879	3.5526	-10.966
3.703	55.34	97.1799	3.5523	-10.914
3.712	55.42	97.1720	3.5520	-10.862
3.720	55.51	97.1640	3.5517	-10.809
3.728	55.59	97.1561	3.5514	-10.757
3.737	55.68	97.1482	3.5511	-10.707
3.745	55.77	97.1403	3.5509	-10.656
3.753	55.85	97.1324	3.5506	-10.603
3.762	55.94	97.1245	3.5503	-10.551
3.770	56.02	97.1167	3.5500	-10.500
3.778	56.11	97.1088	3.5497	-10.448
3.787	56.20	97.1010	3.5494	-10.398
3.795	56.28	97.0932	3.5491	-10.347
3.803	56.37	97.0854	3.5488	-10.296
3.812	56.45	97.0776	3.5486	-10.245
3.820	56.54	97.0697	3.5483	-10.194
3.828	56.62	97.0619	3.5480	-10.144
3.837	56.71	97.0541	3.5477	-10.094
3.845	56.79	97.0463	3.5474	-10.044
3.853	56.88	97.0385	3.5471	-9.994
3.862	56.96	97.0307	3.5469	-9.944
3.870	57.05	97.0229	3.5466	-9.894
3.878	57.14	97.0152	3.5463	-9.844
3.887	57.22	97.0074	3.5460	-9.794
3.895	57.31	96.9997	3.5457	-9.745
3.903	57.39	96.9920	3.5454	-9.695
3.912	57.48	96.9843	3.5452	-9.646
3.920	57.56	96.9766	3.5449	-9.597
3.928	57.65	96.9690	3.5446	-9.549
3.937	57.73	96.9614	3.5443	-9.501
3.945	57.82	96.9538	3.5440	-9.452
3.953	57.90	96.9463	3.5438	-9.404
3.962	57.99	96.9387	3.5435	-9.357
3.970	58.07	96.9312	3.5432	-9.309
3.978	58.16	96.9237	3.5429	-9.261
3.987	58.25	96.9161	3.5427	-9.214
3.995	58.33	96.9086	3.5424	-9.167
4.003	58.42	96.9011	3.5421	-9.119
4.012	58.50	96.8936	3.5418	-9.069
4.020	58.59	96.8861	3.5416	-9.021
4.028	58.67	96.8786	3.5413	-8.974
4.037	58.76	96.8712	3.5410	-8.926
4.045	58.84	96.8638	3.5407	-8.878
4.053	58.93	96.8563	3.5405	-8.829
4.062	59.01	96.8490	3.5402	-8.781
4.070	59.10	96.8416	3.5399	-8.733
4.078	59.18	96.8343	3.5397	-8.685
4.087	59.27	96.8269	3.5394	-8.637
4.095	59.35	96.8196	3.5391	-8.590
4.103	59.44	96.8124	3.5389	-8.544
4.112	59.52	96.8051	3.5386	-8.497
4.120	59.61	96.7978	3.5383	-8.449
4.128	59.69	96.7906	3.5381	-8.403
4.137	59.78	96.7833	3.5378	-8.357
4.145	59.86	96.7761	3.5375	-8.311
4.153	59.95	96.7689	3.5373	-8.265
4.162	60.03	96.7617	3.5370	-8.220
4.170	60.12	96.7545	3.5368	-8.175
4.178	60.21	96.7474	3.5365	-8.130
4.187	60.29	96.7402	3.5362	-8.084
4.195	60.38	96.7331	3.5360	-8.039
4.203	60.46	96.7260	3.5357	-7.994
4.212	60.55	96.7189	3.5355	-7.949
4.220	60.63	96.7119	3.5352	-7.904
4.228	60.72	96.7048	3.5349	-7.858
4.237	60.80	96.6978	3.5347	-7.813
4.245	60.89	96.6908	3.5344	-7.767
4.253	60.97	96.6838	3.5342	-7.722
4.262	61.06	96.6768	3.5339	-7.676
4.270	61.14	96.6699	3.5337	-7.630
4.278	61.23	96.6629	3.5334	-7.584
4.287	61.31	96.6559	3.5332	-7.537
4.295	61.40	96.6490	3.5329	-7.491
4.303	61.48	96.6421	3.5326	-7.445
4.312	61.57	96.6352	3.5324	-7.400
4.320	61.65	96.6283	3.5321	-7.355
4.328	61.74	96.6214	3.5319	-7.310
4.337	61.82	96.6145	3.5316	-7.265
4.345	61.91	96.6077	3.5314	-7.221
4.353	61.99	96.6008	3.5311	-7.176
4.362	62.08	96.5940	3.5309	-7.132
4.370	62.16	96.5873	3.5306	-7.089
4.378	62.25	96.5805	3.5304	-7.046
4.387	62.33	96.5737	3.5301	-7.004
4.395	62.42	96.5670	3.5299	-6.961
4.403	62.50	96.5603	3.5297	-6.917
4.412	62.59	96.5536	3.5294	-6.873
4.420	62.67	96.5470	3.5292	-6.830
4.428	62.76	96.5403	3.5289	-6.786
4.437	62.84	96.5337	3.5287	-6.743
4.445	62.93	96.5270	3.5284	-6.700
4.453	63.01	96.5204	3.5282	-6.656
4.462	63.10	96.5139	3.5280	-6.612
4.470	63.18	96.5074	3.5277	-6.568
4.478	63.27	96.5009	3.5275	-6.525
4.487	63.35	96.4944	3.5272	-6.480
4.495	63.44	96.4880	3.5270	-6.437
4.503	63.53	96.4816	3.5268	-6.394
4.512	63.61	96.4752	3.5265	-6.351
4.520	63.70	96.4689	3.5263	-6.309
4.528	63.78	96.4626	3.5261	-6.267
4.537	63.87	96.4563	3.5259	-6.224
4.545	63.95	96.4500	3.5256	-6.181
4.553	64.04	96.4437	3.5254	-6.139
4.562	64.12	96.4375	3.5252	-6.096
4.570	64.21	96.4313	3.5249	-6.055
4.578	64.29	96.4251	3.5247	-6.013
4.587	64.38	96.4189	3.5245	-5.971
4.595	64.46	96.4127	3.5243	-5.929
4.603	64.55	96.4066	3.5240	-5.886
4.612	64.63	96.4005	3.5238	-5.845
4.620	64.72	96.3944	3.5236	-5.805
4.628	64.80	96.3883	3.5234	-5.764
4.637	64.89	96.3823	3.5231	-5.722
4.645	64.97	96.3762	3.5229	-5.681
4.653	65.06	96.3701	3.5227	-5.640
4.662	65.14	96.3641	3.5225	-5.598
4.670	65.23	96.3581	3.5223	-5.557
4.678	65.31	96.3521	3.5220	-5.516
4.687	65.40	96.3461	3.5218	-5.476
4.695	65.49	96.3401	3.5216	-5.435
4.703	65.57	96.3342	3.5214	-5.394
4.712	65.66	96.3283	3.5212	-5.353
4.720	65.74	96.3224	3.5210	-5.312
4.728	65.83	96.3165	3.5207	-5.271
4.737	65.91	96.3107	3.5205	-5.231
4.745	66.00	96.3049	3.5203	-5.190
4.753	66.08	96.2991	3.5201	-5.151
4.762	66.17	96.2933	3.5199	-5.111
4.770	66.25	96.2876	3.5197	-5.071
4.778	66.34	96.2818	3.5195	-5.032
4.787	66.42	96.2761	3.5193	-4.993
4.795	66.51	96.2704	3.5191	-4.954
4.803	66.59	96.2648	3.5189	-4.916
4.812	66.68	96.2591	3.5186	-4.878
4.820	66.77	96.2535	3.5184	-4.840
4.828	66.85	96.2479	3.5182	-4.802
4.837	66.94	96.2423	3.5180	-4.763
4.845	67.02	96.2368	3.5178	-4.726
4.853	67.11	96.2312	3.5176	-4.688
4.862	67.19	96.2257	3.5174	-4.649
4.870	67.28	96.2203	3.5172	-4.611
4.878	67.36	96.2148	3.5170	-4.573
4.887	67.45	96.2094	3.5168	-4.534
4.895	67.53	96.2039	3.5166	-4.496
4.903	67.62	96.1985	3.5164	-4.458
4.912	67.70	96.1931	3.5162	-4.420
4.920	67.79	96.1878	3.5160	-4.382
4.928	67.88	96.1824	3.5158	-4.343
4.937	67.96	96.1771	3.5156	-4.305
4.945	68.05	96.1718	3.5155	-4.267
4.953	68.13	96.1665	3.5153	-4.229
4.962	68.22	96.1613	3.5151	-4.191
4.970	68.31	96.1560	3.5149	-4.153
4.978	68.39	96.1508	3.5147	-4.115
4.987	68.48	96.1456	3.5145	-4.078
4.995	68.56	96.1405	3.5143	-4.040
5.003	68.65	96.1354	3.5141	-4.002
5.012	68.73	96.1303	3.5139	-3.965
5.020	68.82	96.1252	3.5138	-3.927
5.028	68.90	96.1202	3.5136	-3.890
5.037	68.99	96.1151	3.5134	-3.852
5.045	69.08	96.1101	3.5132	-3.816
5.053	69.16	96.1051	3.5130	-3.779
5.062	69.25	96.1002	3.5128	-3.742
5.070	69.33	96.0953	3.5127	-3.706
5.078	69.42	96.0903	3.5125	-3.670
5.087	69.50	96.0854	3.5123	-3.634
5.095	69.59	96.0805	3.5121	-3.598
5.103	69.68	96.0757	3.5119	-3.563
5.112	69.76	96.0708	3.5118	-3.528
5.120	69.85	96.0660	3.5116	-3.494
5.128	69.93	96.0613	3.5114	-3.458
5.137	70.02	96.0565	3.5112	-3.422
5.145	70.10	96.0518	3.5111	-3.387
5.153	70.19	96.0471	3.5109	-3.351
5.162	70.28	96.0425	3.5107	-3.316
5.170	70.36	96.0378	3.5106	-3.281
5.178	70.45	96.0332	3.5104	-3.246
5.187	70.53	96.0286	3.5102	-3.210
5.195	70.62	96.0240	3.5101	-3.175
5.203	70.71	96.0194	3.5099	-3.139
5.212	70.79	96.0148	3.5097	-3.106
5.220	70.88	96.0102	3.5095	-3.071
5.228	70.96	96.0057	3.5094	-3.035
5.237	71.05	96.0011	3.5092	-3.000
5.245	71.13	95.9967	3.5091	-2.965
5.253	71.22	95.9922	3.5089	-2.930
5.262	71.31	95.9877	3.5087	-2.896
5.270	71.39	95.9833	3.5086	-2.862
5.278	71.48	95.9789	3.5084	-2.827
5.287	71.56	95.9746	3.5082	-2.792
5.295	71.65	95.9702	3.5081	-2.756
5.303	71.74	95.9659	3.5079	-2.721
5.312	71.82	95.9616	3.5078	-2.688
5.320	71.91	95.9573	3.5076	-2.655
5.328	71.99	95.9530	3.5075	-2.621
5.337	72.08	95.9488	3.5073	-2.587
5.345	72.17	95.9445	3.5071	-2.553
5.353	72.25	95.9403	3.5070	-2.518
5.362	72.34	95.9362	3.5068	-2.485
5.370	72.42	95.9320	3.5067	-2.452
5.378	72.51	95.9279	3.5065	-2.420
5.387	72.60	95.9238	3.5064	-2.387
5.395	72.68	95.9197	3.5062	-2.354
5.403	72.77	95.9157	3.5061	-2.320
5.412	72.86	95.9116	3.5059	-2.287
5.420	72.94	95.9076	3.5058	-2.255
5.428	73.03	95.9036	3.5057	-2.223
5.437	73.11	95.8997	3.5055	-2.191
5.445	73.20	95.8957	3.5054	-2.159
5.453	73.29	95.8918	3.5052	-2.127
5.462	73.37	95.8880	3.5051	-2.095
5.470	73.46	95.8841	3.5049	-2.062
5.478	73.54	95.8802	3.5048	-2.030
5.487	73.63	95.8764	3.5047	-1.998
5.495	73.72	95.8726	3.5045	-1.966
5.503	73.80	95.8688	3.5044	-1.934
5.512	73.89	95.8650	3.5042	-1.901
5.520	73.98	95.8612	3.5041	-1.869
5.528	74.06	95.8574	3.5040	-1.836
5.537	74.15	95.8537	3.5038	-1.804
5.545	74.24	95.8500	3.5037	-1.772
5.553	74.32	95.8462	3.5036	-1.741
5.562	74.41	95.8426	3.5034	-1.709
5.570	74.50	95.8389	3.5033	-1.677
5.578	74.58	95.8353	3.5032	-1.647
5.587	74.67	95.8316	3.5030	-1.616
5.595	74.76	95.8281	3.5029	-1.586
5.603	74.84	95.8245	3.5028	-1.554
5.612	74.93	95.8209	3.5026	-1.523
5.620	75.01	95.8174	3.5025	-1.492
5.628	75.10	95.8138	3.5024	-1.462
5.637	75.19	95.8103	3.5022	-1.432
5.645	75.27	95.8068	3.5021	-1.402
5.653	75.36	95.8034	3.5020	-1.374
5.662	75.44	95.7999	3.5019	-1.343
5.670	75.53	95.7964	3.5017	-1.312
5.678	75.62	95.7930	3.5016	-1.282
5.687	75.70	95.7896	3.5015	-1.253
5.695	75.79	95.7861	3.5014	-1.223
5.703	75.88	95.7828	3.5012	-1.193
5.712	75.96	95.7794	3.5011	-1.164
5.720	76.05	95.7761	3.5010	-1.133
5.728	76.14	95.7727	3.5009	-1.104
5.737	76.22	95.7694	3.5007	-1.073
5.745	76.31	95.7661	3.5006	-1.043
5.753	76.40	95.7629	3.5005	-1.014
5.762	76.48	95.7597	3.5004	-0.984
5.770	76.57	95.7565	3.5003	-0.955
5.778	76.66	95.7533	3.5002	-0.927
5.787	76.74	95.7501	3.5000	-0.899
5.795	76.83	95.7470	3.4999	-0.871
5.803	76.92	95.7438	3.4998	-0.843
5.812	77.00	95.7407	3.4997	-0.815
5.820	77.09	95.7376	3.4996	-0.786
5.828	77.17	95.7345	3.4995	-0.758
5.837	77.26	95.7314	3.4994	-0.730
5.845	77.35	95.7284	3.4992	-0.702
5.853	77.43	95.7253	3.4991	-0.675
5.862	77.52	95.7223	3.4990	-0.647
5.870	77.61	95.7193	3.4989	-0.618
5.878	77.69	95.7163	3.4988	-0.589
5.887	77.78	95.7133	3.4987	-0.560
5.895	77.87	95.7104	3.4986	-0.531
5.903	77.95	95.7075	3.4985	-0.503
5.912	78.04	95.7046	3.4984	-0.475
5.920	78.13	95.7017	3.4983	-0.448
5.928	78.21	95.6989	3.4982	-0.419
5.937	78.30	95.6960	3.4981	-0.391
5.945	78.39	95.6932	3.4980	-0.364
5.953	78.47	95.6904	3.4979	-0.337
5.962	78.56	95.6877	3.4978	-0.310
5.970	78.65	95.6849	3.4977	-0.283
5.978	78.73	95.6821	3.4976	-0.257
5.987	78.82	95.6794	3.4975	-0.231
5.995	78.91	95.6767	3.4974	-0.206
6.003	78.99	95.6740	3.4973	-0.179
6.012	79.08	95.6714	3.4972	-0.153
6.020	79.16	95.6687	3.4971	-0.127
6.028	79.25	95.6661	3.4970	-0.100
6.037	79.34	95.6635	3.4969	-0.073
6.045	79.42	95.6609	3.4968	-0.046
6.053	79.51	95.6583	3.4967	-0.021
6.062	79.60	95.6558	3.4966	0.005
6.070	79.69	95.6532	3.4965	0.031
6.078	79.77	95.6507	3.4964	0.057
6.087	79.86	95.6482	3.4963	0.082
6.095	79.94	95.6456	3.4962	0.106
6.103	80.03	95.6431	3.4961	0.132
6.112	80.12	95.6406	3.4960	0.157
6.120	80.20	95.6381	3.4959	0.182
6.128	80.29	95.6356	3.4959	0.208
6.137	80.38	95.6332	3.4958	0.234
6.145	80.46	95.6307	3.4957	0.260
6.153	80.55	95.6283	3.4956	0.286
6.162	80.64	95.6259	3.4955	0.313
6.170	80.72	95.6236	3.4954	0.338
6.178	80.81	95.6212	3.4953	0.363
6.187	80.90	95.6189	3.4952	0.388
6.195	80.98	95.6166	3.4952	0.413
6.203	81.07	95.6143	3.4951	0.438
6.212	81.16	95.6120	3.4950	0.462
6.220	81.24	95.6097	3.4949	0.486
6.228	81.33	95.6075	3.4948	0.509
6.237	81.42	95.6053	3.4947	0.533
6.245	81.50	95.6031	3.4947	0.557
6.253	81.59	95.6008	3.4946	0.581
6.262	81.68	95.5987	3.4945	0.606
6.270	81.76	95.5965	3.4944	0.630
6.278	81.85	95.5943	3.4943	0.654
6.287	81.94	95.5922	3.4943	0.677
6.295	82.02	95.5901	3.4942	0.701
6.303	82.11	95.5880	3.4941	0.724
6.312	82.20	95.5859	3.4940	0.748
6.320	82.28	95.5838	3.4940	0.771
6.328	82.37	95.5817	3.4939	0.794
6.337	82.46	95.5797	3.4938	0.817
6.345	82.54	95.5776	3.4937	0.839
6.353	82.63	95.5756	3.4937	0.861
6.362	82.72	95.5735	3.4936	0.884
6.370	82.80	95.5715	3.4935	0.908
6.378	82.89	95.5695	3.4934	0.932
6.387	82.98	95.5675	3.4934	0.955
6.395	83.06	95.5655	3.4933	0.977
6.403	83.15	95.5635	3.4932	1.000
6.412	83.24	95.5616	3.4931	1.023
6.420	83.32	95.5596	3.4931	1.046
6.428	83.41	95.5577	3.4930	1.070
6.437	83.50	95.5558	3.4929	1.093
6.445	83.58	95.5539	3.4929	1.116
6.453	83.67	95.5520	3.4928	1.139
6.462	83.76	95.5501	3.4927	1.162
6.470	83.84	95.5483	3.4927	1.185
6.478	83.93	95.5465	3.4926	1.208
6.487	84.02	95.5447	3.4925	1.231
6.495	84.11	95.5430	3.4925	1.254
6.503	84.19	95.5412	3.4924	1.276
6.512	84.28	95.5395	3.4923	1.297
6.520	84.37	95.5378	3.4923	1.319
6.528	84.45	95.5361	3.4922	1.340
6.537	84.54	95.5344	3.4922	1.360
6.545	84.63	95.5327	3.4921	1.381
6.553	84.71	95.5311	3.4920	1.403
6.562	84.80	95.5294	3.4920	1.424
6.570	84.89	95.5277	3.4919	1.446
6.578	84.97	95.5261	3.4919	1.468
6.587	85.06	95.5244	3.4918	1.490
6.595	85.15	95.5228	3.4917	1.512
6.603	85.23	95.5211	3.4917	1.533
6.612	85.32	95.5195	3.4916	1.555
6.620	85.41	95.5178	3.4916	1.577
6.628	85.49	95.5162	3.4915	1.598
6.637	85.58	95.5146	3.4914	1.620
6.645	85.67	95.5130	3.4914	1.641
6.653	85.75	95.5114	3.4913	1.662
6.662	85.84	95.5099	3.4913	1.683
6.670	85.93	95.5083	3.4912	1.702
6.678	86.01	95.5068	3.4911	1.721
6.687	86.10	95.5053	3.4911	1.741
6.695	86.19	95.5039	3.4910	1.759
6.703	86.27	95.5024	3.4910	1.778
6.712	86.36	95.5010	3.4909	1.796
6.720	86.45	95.4996	3.4909	1.814
6.728	86.53	95.4982	3.4908	1.833
6.737	86.62	95.4968	3.4908	1.850
6.745	86.71	95.4955	3.4907	1.869
6.753	86.79	95.4941	3.4907	1.888
6.762	86.88	95.4927	3.4906	1.906
6.770	86.96	95.4914	3.4906	1.924
6.778	87.05	95.4901	3.4905	1.943
6.787	87.14	95.4888	3.4905	1.963
6.795	87.22	95.4874	3.4904	1.981
6.803	87.31	95.4861	3.4904	1.999
6.812	87.40	95.4849	3.4903	2.017
6.820	87.48	95.4836	3.4903	2.035
6.828	87.57	95.4823	3.4903	2.053
6.837	87.66	95.4811	3.4902	2.072
6.845	87.74	95.4798	3.4902	2.091
6.853	87.83	95.4785	3.4901	2.111
6.862	87.92	95.4773	3.4901	2.130
6.870	88.00	95.4760	3.4900	2.148
6.878	88.09	95.4747	3.4900	2.167
6.887	88.18	95.4735	3.4899	2.185
6.895	88.26	95.4722	3.4899	2.203
6.903	88.35	95.4710	3.4898	2.221
6.912	88.44	95.4697	3.4898	2.239
6.920	88.52	95.4685	3.4897	2.256
6.928	88.61	95.4673	3.4897	2.274
6.937	88.70	95.4661	3.4897	2.291
6.945	88.78	95.4649	3.4896	2.308
6.953	88.87	95.4637	3.4896	2.325
6.962	88.96	95.4626	3.4895	2.342
6.970	89.04	95.4614	3.4895	2.359
6.978	89.13	95.4602	3.4894	2.377
6.987	89.22	95.4591	3.4894	2.394
6.995	89.30	95.4580	3.4894	2.410
7.003	89.39	95.4569	3.4893	2.426
7.012	89.48	95.4558	3.4893	2.442
7.020	89.56	95.4547	3.4892	2.459
7.028	89.65	95.4537	3.4892	2.475
7.037	89.73	95.4527	3.4892	2.492
7.045	89.82	95.4517	3.4891	2.509
7.053	89.91	95.4507	3.4891	2.526
7.062	89.99	95.4497	3.4891	2.542
7.070	90.08	95.4487	3.4890	2.560
7.078	90.17	95.4478	3.4890	2.578
7.087	90.25	95.4468	3.4890	2.596
7.095	90.34	95.4458	3.4889	2.613
7.103	90.43	95.4448	3.4889	2.629
7.112	90.51	95.4438	3.4888	2.644
7.120	90.60	95.4428	3.4888	2.659
7.128	90.68	95.4418	3.4888	2.675
7.137	90.77	95.4408	3.4887	2.689
7.145	90.86	95.4399	3.4887	2.704
7.153	90.94	95.4389	3.4887	2.719
7.162	91.03	95.4379	3.4886	2.733
7.170	91.12	95.4370	3.4886	2.747
7.178	91.20	95.4360	3.4886	2.761
7.187	91.29	95.4351	3.4885	2.777
7.195	91.38	95.4342	3.4885	2.793
7.203	91.46	95.4333	3.4885	2.808
7.212	91.55	95.4324	3.4884	2.822
7.220	91.64	95.4316	3.4884	2.838
7.228	91.72	95.4307	3.4884	2.854
7.237	91.81	95.4299	3.4883	2.869
7.245	91.89	95.4291	3.4883	2.884
7.253	91.98	95.4283	3.4883	2.899
7.262	92.07	95.4275	3.4882	2.914
7.270	92.15	95.4266	3.4882	2.928
7.278	92.24	95.4258	3.4882	2.943
7.287	92.32	95.4250	3.4882	2.957
7.295	92.41	95.4242	3.4881	2.971
7.303	92.50	95.4234	3.4881	2.985
7.312	92.58	95.4226	3.4881	2.998
7.320	92.67	95.4218	3.4880	3.011
7.328	92.76	95.4210	3.4880	3.023
7.337	92.84	95.4202	3.4880	3.035
7.345	92.93	95.4194	3.4880	3.047
7.353	93.01	95.4187	3.4879	3.059
7.362	93.10	95.4179	3.4879	3.071
7.370	93.19	95.4172	3.4879	3.083
7.378	93.27	95.4164	3.4878	3.096
7.387	93.36	95.4157	3.4878	3.108
7.395	93.44	95.4149	3.4878	3.121
7.403	93.53	95.4142	3.4878	3.134
7.412	93.62	95.4135	3.4877	3.148
7.420	93.70	95.4128	3.4877	3.163
7.428	93.79	95.4121	3.4877	3.177
7.437	93.88	95.4114	3.4877	3.191
7.445	93.96	95.4108	3.4876	3.204
7.453	94.05	95.4101	3.4876	3.218
7.462	94.13	95.4094	3.4876	3.230
7.470	94.22	95.4088	3.4876	3.244
7.478	94.31	95.4081	3.4875	3.257
7.487	94.39	95.4075	3.4875	3.269
7.495	94.48	95.4069	3.4875	3.281
7.503	94.57	95.4062	3.4875	3.292
7.512	94.65	95.4056	3.4874	3.304
7.520	94.74	95.4050	3.4874	3.316
7.528	94.82	95.4044	3.4874	3.328
7.537	94.91	95.4038	3.4874	3.340
7.545	95.00	95.4031	3.4874	3.351
7.553	95.08	95.4025	3.4873	3.362
7.562	95.17	95.4019	3.4873	3.373
7.570	95.25	95.4013	3.4873	3.385
7.578	95.34	95.4007	3.4873	3.399
7.587	95.43	95.4001	3.4872	3.412
7.595	95.51	95.3995	3.4872	3.424
7.603	95.60	95.3989	3.4872	3.436
7.612	95.69	95.3983	3.4872	3.447
7.620	95.77	95.3977	3.4872	3.459
7.628	95.86	95.3971	3.4871	3.470
7.637	95.94	95.3966	3.4871	3.482
7.645	96.03	95.3960	3.4871	3.494
7.653	96.12	95.3955	3.4871	3.505
7.662	96.20	95.3949	3.4871	3.515
7.670	96.29	95.3944	3.4870	3.525
7.678	96.37	95.3938	3.4870	3.536
7.687	96.46	95.3933	3.4870	3.546
7.695	96.55	95.3927	3.4870	3.557
7.703	96.63	95.3922	3.4870	3.569
7.712	96.72	95.3916	3.4869	3.580
7.720	96.80	95.3910	3.4869	3.591
7.728	96.89	95.3905	3.4869	3.601
7.737	96.98	95.3900	3.4869	3.612
7.745	97.06	95.3894	3.4869	3.622
7.753	97.15	95.3889	3.4868	3.632
7.762	97.23	95.3883	3.4868	3.642
7.770	97.32	95.3878	3.4868	3.651
7.778	97.41	95.3873	3.4868	3.661
7.787	97.49	95.3868	3.4868	3.669
7.795	97.58	95.3863	3.4867	3.677
7.803	97.67	95.3858	3.4867	3.684
7.812	97.75	95.3853	3.4867	3.693
7.820	97.84	95.3849	3.4867	3.701
7.828	97.92	95.3844	3.4867	3.709
7.837	98.01	95.3839	3.4867	3.718
7.845	98.10	95.3834	3.4866	3.727
7.853	98.18	95.3829	3.4866	3.737
7.862	98.27	95.3825	3.4866	3.747
7.870	98.35	95.3820	3.4866	3.756
7.878	98.44	95.3815	3.4866	3.766
7.887	98.52	95.3810	3.4865	3.775
7.895	98.61	95.3806	3.4865	3.784
7.903	98.70	95.3802	3.4865	3.793
7.912	98.78	95.3797	3.4865	3.801
7.920	98.87	95.3793	3.4865	3.810
7.928	98.95	95.3789	3.4865	3.818
7.937	99.04	95.3785	3.4865	3.825
7.945	99.13	95.3781	3.4864	3.833
7.953	99.21	95.3777	3.4864	3.841
7.962	99.30	95.3773	3.4864	3.850
7.970	99.38	95.3769	3.4864	3.859
7.978	99.47	95.3765	3.4864	3.868
7.987	99.56	95.3761	3.4864	3.876
7.995	99.64	95.3757	3.4864	3.883
8.003	99.73	95.3753	3.4863	3.891
8.012	99.81	95.3749	3.4863	3.900
8.020	99.90	95.3745	3.4863	3.908
8.028	99.99	95.3741	3.4863	3.916
8.037	100.07	95.3738	3.4863	3.924
8.045	100.16	95.3734	3.4863	3.931
8.053	100.24	95.3730	3.4863	3.937
8.062	100.33	95.3726	3.4862	3.944
8.070	100.42	95.3722	3.4862	3.951
8.078	100.50	95.3719	3.4862	3.958
8.087	100.59	95.3715	3.4862	3.965
8.095	100.67	95.3711	3.4862	3.970
8.103	100.76	95.3707	3.4862	3.976
8.112	100.84	95.3704	3.4862	3.983
8.120	100.93	95.3700	3.4861	3.989
8.128	101.02	95.3696	3.4861	3.995
8.137	101.10	95.3692	3.4861	4.001
8.145	101.19	95.3688	3.4861	4.008
8.153	101.27	95.3684	3.4861	4.015
8.162	101.36	95.3681	3.4861	4.023
8.170	101.44	95.3677	3.4861	4.030
8.178	101.53	95.3674	3.4860	4.038
8.187	101.62	95.3670	3.4860	4.045
8.195	101.70	95.3666	3.4860	4.053
8.203	101.79	95.3662	3.4860	4.061
8.212	101.87	95.3659	3.4860	4.068
8.220	101.96	95.3655	3.4860	4.075
8.228	102.05	95.3652	3.4860	4.082
8.237	102.13	95.3648	3.4860	4.088
8.245	102.22	95.3645	3.4859	4.095
8.253	102.30	95.3641	3.4859	4.100
8.262	102.39	95.3637	3.4859	4.106
8.270	102.47	95.3634	3.4859	4.111
8.278	102.56	95.3631	3.4859	4.116
8.287	102.65	95.3627	3.4859	4.121
8.295	102.73	95.3624	3.4859	4.126
8.303	102.82	95.3621	3.4859	4.132
8.312	102.90	95.3618	3.4858	4.137
8.320	102.99	95.3615	3.4858	4.143
8.328	103.08	95.3611	3.4858	4.148
8.337	103.16	95.3608	3.4858	4.154
8.345	103.25	95.3605	3.4858	4.160
8.353	103.33	95.3602	3.4858	4.166
8.362	103.42	95.3599	3.4858	4.172
8.370	103.50	95.3596	3.4858	4.178
8.378	103.59	95.3593	3.4858	4.183
8.387	103.68	95.3590	3.4857	4.188
8.395	103.76	95.3587	3.4857	4.194
8.403	103.85	95.3584	3.4857	4.199
8.412	103.93	95.3581	3.4857	4.205
8.420	104.02	95.3578	3.4857	4.210
8.428	104.10	95.3575	3.4857	4.215
8.437	104.19	95.3572	3.4857	4.221
8.445	104.28	95.3569	3.4857	4.226
8.453	104.36	95.3566	3.4857	4.231
8.462	104.45	95.3563	3.4856	4.236
8.470	104.53	95.3560	3.4856	4.240
8.478	104.62	95.3557	3.4856	4.244
8.487	104.71	95.3554	3.4856	4.248
8.495	104.79	95.3551	3.4856	4.251
8.503	104.88	95.3548	3.4856	4.254
8.512	104.96	95.3545	3.4856	4.257
8.520	105.05	95.3542	3.4856	4.260
8.528	105.13	95.3539	3.4856	4.264
8.537	105.22	95.3536	3.4855	4.267
8.545	105.31	95.3533	3.4855	4.271
8.553	105.39	95.3530	3.4855	4.275
8.562	105.48	95.3527	3.4855	4.279
8.570	105.56	95.3524	3.4855	4.284
8.578	105.65	95.3521	3.4855	4.288
8.587	105.74	95.3519	3.4855	4.293
8.595	105.82	95.3516	3.4855	4.299
8.603	105.91	95.3513	3.4855	4.304
8.612	105.99	95.3511	3.4855	4.309
8.620	106.08	95.3508	3.4854	4.314
8.628	106.16	95.3506	3.4854	4.319

[step]
Isothermal 30.0 min
Time	Temperature	Weight	Weight	Heat Flow
min	°C	%	mg	mW
8.637	106.25	95.3503	3.4854	4.323
8.662	106.51	95.3496	3.4854	4.335
8.687	106.76	95.3487	3.4854	4.344
8.712	107.02	95.3479	3.4853	4.353
8.737	107.28	95.3471	3.4853	4.368
8.762	107.53	95.3464	3.4853	4.387
8.787	107.78	95.3457	3.4853	4.411
8.812	108.03	95.3450	3.4852	4.437
8.837	108.28	95.3443	3.4852	4.469
8.862	108.52	95.3435	3.4852	4.506
8.887	108.76	95.3426	3.4851	4.552
8.912	108.99	95.3417	3.4851	4.604
8.937	109.22	95.3408	3.4851	4.663
8.962	109.45	95.3400	3.4850	4.726
8.987	109.67	95.3391	3.4850	4.796
9.012	109.88	95.3383	3.4850	4.869
9.037	110.09	95.3374	3.4850	4.949
9.062	110.30	95.3365	3.4849	5.035
9.087	110.50	95.3356	3.4849	5.126
9.112	110.69	95.3346	3.4849	5.223
9.137	110.88	95.3337	3.4848	5.323
9.162	111.06	95.3327	3.4848	5.428
9.187	111.23	95.3317	3.4847	5.539
9.212	111.40	95.3307	3.4847	5.657
9.237	111.56	95.3297	3.4847	5.779
9.262	111.72	95.3287	3.4846	5.903
9.287	111.86	95.3276	3.4846	6.032
9.312	112.01	95.3265	3.4846	6.164
9.337	112.14	95.3253	3.4845	6.301
9.362	112.27	95.3241	3.4845	6.440
9.387	112.39	95.3231	3.4844	6.584
9.412	112.51	95.3221	3.4844	6.733
9.437	112.61	95.3213	3.4844	6.888
9.462	112.71	95.3204	3.4843	7.046
9.487	112.81	95.3194	3.4843	7.205
9.512	112.89	95.3184	3.4843	7.365
9.537	112.97	95.3173	3.4842	7.527
9.562	113.04	95.3162	3.4842	7.686
9.587	113.11	95.3151	3.4841	7.844
9.612	113.17	95.3141	3.4841	8.003
9.637	113.22	95.3130	3.4841	8.161
9.662	113.27	95.3120	3.4840	8.320
9.687	113.31	95.3109	3.4840	8.481
9.712	113.35	95.3098	3.4839	8.640
9.737	113.38	95.3087	3.4839	8.797
9.762	113.41	95.3076	3.4839	8.951
9.787	113.43	95.3065	3.4838	9.102
9.812	113.45	95.3054	3.4838	9.253
9.837	113.46	95.3043	3.4837	9.398
9.862	113.47	95.3033	3.4837	9.541
9.887	113.48	95.3022	3.4837	9.683
9.912	113.48	95.3011	3.4836	9.822
9.937	113.47	95.3000	3.4836	9.960
9.962	113.46	95.2989	3.4835	10.094
9.987	113.45	95.2977	3.4835	10.225
10.012	113.44	95.2966	3.4835	10.352
10.037	113.42	95.2954	3.4834	10.476
10.062	113.40	95.2942	3.4834	10.598
10.087	113.38	95.2929	3.4833	10.713
10.112	113.35	95.2917	3.4833	10.824
10.137	113.32	95.2905	3.4832	10.927
10.162	113.30	95.2894	3.4832	11.024
10.187	113.27	95.2884	3.4832	11.117
10.212	113.24	95.2874	3.4831	11.206
10.237	113.20	95.2865	3.4831	11.292
10.262	113.17	95.2855	3.4831	11.373
10.287	113.14	95.2846	3.4830	11.445
10.312	113.11	95.2838	3.4830	11.517
10.337	113.07	95.2830	3.4830	11.584
10.362	113.04	95.2823	3.4829	11.650
10.387	113.00	95.2817	3.4829	11.713
10.412	112.97	95.2810	3.4829	11.768
10.437	112.93	95.2803	3.4829	11.819
10.462	112.90	95.2796	3.4828	11.868
10.487	112.86	95.2788	3.4828	11.911
10.512	112.83	95.2781	3.4828	11.951
10.537	112.79	95.2773	3.4828	11.989
10.562	112.76	95.2765	3.4827	12.023
10.587	112.72	95.2758	3.4827	12.058
10.612	112.69	95.2752	3.4827	12.093
10.637	112.66	95.2746	3.4827	12.127
10.662	112.62	95.2740	3.4826	12.155
10.687	112.59	95.2734	3.4826	12.178
10.712	112.56	95.2729	3.4826	12.197
10.737	112.53	95.2725	3.4826	12.213
10.762	112.50	95.2721	3.4826	12.228
10.787	112.47	95.2716	3.4825	12.240
10.812	112.44	95.2711	3.4825	12.251
10.837	112.41	95.2705	3.4825	12.262
10.862	112.38	95.2699	3.4825	12.272
10.887	112.36	95.2694	3.4825	12.280
10.912	112.33	95.2690	3.4825	12.287
10.937	112.31	95.2686	3.4824	12.293
10.962	112.29	95.2681	3.4824	12.299
10.987	112.27	95.2676	3.4824	12.303
11.012	112.24	95.2671	3.4824	12.306
11.037	112.22	95.2666	3.4824	12.308
11.062	112.21	95.2661	3.4823	12.309
11.087	112.19	95.2657	3.4823	12.310
11.112	112.17	95.2653	3.4823	12.309
11.137	112.16	95.2650	3.4823	12.308
11.162	112.14	95.2647	3.4823	12.306
11.187	112.13	95.2643	3.4823	12.303
11.212	112.12	95.2639	3.4823	12.298
11.237	112.11	95.2635	3.4823	12.290
11.262	112.10	95.2632	3.4822	12.280
11.287	112.09	95.2628	3.4822	12.269
11.312	112.09	95.2625	3.4822	12.258
11.337	112.08	95.2623	3.4822	12.248
11.362	112.07	95.2622	3.4822	12.236
11.387	112.07	95.2621	3.4822	12.222
11.412	112.07	95.2619	3.4822	12.205
11.437	112.07	95.2617	3.4822	12.188
11.462	112.06	95.2614	3.4822	12.169
[...]
158.245	949.55	-3.5984	-0.1315	92.107
158.253	949.55	-3.5985	-0.1315	92.118
158.262	949.55	-3.5986	-0.1315	92.130
158.270	949.55	-3.5986	-0.1315	92.142
158.278	949.55	-3.5987	-0.1315	92.154
158.287	949.55	-3.5988	-0.1316	92.165
158.295	949.55	-3.5989	-0.1316	92.176
158.303	949.55	-3.5990	-0.1316	92.187
158.312	949.55	-3.5991	-0.1316	92.198
158.320	949.56	-3.5992	-0.1316	92.209
158.328	949.56	-3.5993	-0.1316	92.219
158.337	949.56	-3.5994	-0.1316	92.229
158.345	949.56	-3.5995	-0.1316	92.239
158.353	949.56	-3.5996	-0.1316	92.249
158.362	949.56	-3.5997	-0.1316	92.259
158.370	949.56	-3.5998	-0.1316	92.269
158.378	949.56	-3.5999	-0.1316	92.279
158.387	949.56	-3.5999	-0.1316	92.290
158.395	949.56	-3.6000	-0.1316	92.301
158.403	949.56	-3.6001	-0.1316	92.313
158.412	949.56	-3.6002	-0.1316	92.325
158.420	949.56	-3.6003	-0.1316	92.336
158.428	949.56	-3.6004	-0.1316	92.346
158.437	949.56	-3.6005	-0.1316	92.356
158.445	949.56	-3.6006	-0.1316	92.365
158.453	949.56	-3.6007	-0.1316	92.375
158.462	949.57	-3.6008	-0.1316	92.385
158.470	949.57	-3.6009	-0.1316	92.393
158.478	949.57	-3.6010	-0.1316	92.401
158.487	949.57	-3.6010	-0.1316	92.408
158.495	949.57	-3.6011	-0.1316	92.415
158.503	949.57	-3.6012	-0.1316	92.423
158.512	949.57	-3.6012	-0.1316	92.431
158.520	949.57	-3.6013	-0.1316	92.440
158.528	949.57	-3.6013	-0.1316	92.449
158.537	949.57	-3.6013	-0.1316	92.457
158.545	949.57	-3.6014	-0.1316	92.465
158.553	949.57	-3.6014	-0.1316	92.473
158.562	949.57	-3.6014	-0.1316	92.482
158.570	949.57	-3.6015	-0.1316	92.492
158.578	949.57	-3.6015	-0.1317	92.502
158.587	949.57	-3.6016	-0.1317	92.512
158.595	949.57	-3.6016	-0.1317	92.523
158.603	949.57	-3.6017	-0.1317	92.532
158.612	949.57	-3.6017	-0.1317	92.542
158.620	949.57	-3.6018	-0.1317	92.553
158.628	949.57	-3.6018	-0.1317	92.563
158.637	949.57	-3.6019	-0.1317	92.574
158.645	949.57	-3.6019	-0.1317	92.584
158.653	949.58	-3.6020	-0.1317	92.593
158.662	949.58	-3.6020	-0.1317	92.604
158.670	949.58	-3.6020	-0.1317	92.615
158.678	949.58	-3.6021	-0.1317	92.628
158.687	949.58	-3.6021	-0.1317	92.641
158.695	949.58	-3.6022	-0.1317	92.653
158.703	949.58	-3.6022	-0.1317	92.666
158.712	949.58	-3.6023	-0.1317	92.679
158.720	949.58	-3.6024	-0.1317	92.692
158.728	949.58	-3.6025	-0.1317	92.705
158.737	949.58	-3.6026	-0.1317	92.718
158.745	949.58	-3.6027	-0.1317	92.730
158.753	949.58	-3.6028	-0.1317	92.741
158.762	949.58	-3.6029	-0.1317	92.751
158.770	949.58	-3.6030	-0.1317	92.760
158.778	949.58	-3.6031	-0.1317	92.770
158.787	949.58	-3.6031	-0.1317	92.779
158.795	949.58	-3.6032	-0.1317	92.788
158.803	949.58	-3.6033	-0.1317	92.798
158.812	949.58	-3.6033	-0.1317	92.807
158.820	949.58	-3.6034	-0.1317	92.817
158.828	949.58	-3.6034	-0.1317	92.827
158.837	949.58	-3.6035	-0.1317	92.837
158.845	949.58	-3.6035	-0.1317	92.846
158.853	949.58	-3.6036	-0.1317	92.854
158.862	949.59	-3.6036	-0.1317	92.863
158.870	949.59	-3.6037	-0.1317	92.872
158.878	949.59	-3.6037	-0.1317	92.881
158.887	949.59	-3.6037	-0.1317	92.889
158.895	949.59	-3.6038	-0.1317	92.898
158.903	949.59	-3.6038	-0.1317	92.905
158.912	949.59	-3.6038	-0.1317	92.914
158.920	949.59	-3.6039	-0.1317	92.923
158.928	949.59	-3.6039	-0.1317	92.932
158.937	949.59	-3.6040	-0.1317	92.942
158.945	949.59	-3.6040	-0.1317	92.951
158.953	949.59	-3.6040	-0.1317	92.960
158.962	949.59	-3.6041	-0.1317	92.970
158.970	949.59	-3.6041	-0.1317	92.979
158.978	949.59	-3.6042	-0.1317	92.988
158.987	949.59	-3.6042	-0.1317	92.997
158.995	949.59	-3.6043	-0.1317	93.006
159.003	949.59	-3.6043	-0.1318	93.014
159.012	949.59	-3.6044	-0.1318	93.021
159.020	949.59	-3.6044	-0.1318	93.029
159.028	949.59	-3.6045	-0.1318	93.037
159.037	949.59	-3.6045	-0.1318	93.044
159.045	949.59	-3.6046	-0.1318	93.052
159.053	949.59	-3.6046	-0.1318	93.059
159.062	949.59	-3.6047	-0.1318	93.067
159.070	949.59	-3.6047	-0.1318	93.075
159.078	949.59	-3.6048	-0.1318	93.082
159.087	949.60	-3.6048	-0.1318	93.090
159.095	949.60	-3.6049	-0.1318	93.097
159.103	949.60	-3.6049	-0.1318	93.104
159.112	949.60	-3.6050	-0.1318	93.112
159.120	949.60	-3.6051	-0.1318	93.120
159.128	949.60	-3.6051	-0.1318	93.129
159.137	949.60	-3.6052	-0.1318	93.138
159.145	949.60	-3.6053	-0.1318	93.148
159.153	949.60	-3.6054	-0.1318	93.157
159.162	949.60	-3.6055	-0.1318	93.166
159.170	949.60	-3.6055	-0.1318	93.175
159.178	949.60	-3.6056	-0.1318	93.185
159.187	949.60	-3.6057	-0.1318	93.194
159.195	949.60	-3.6058	-0.1318	93.204
159.203	949.60	-3.6058	-0.1318	93.215
159.212	949.60	-3.6059	-0.1318	93.224
159.220	949.60	-3.6060	-0.1318	93.232
159.228	949.60	-3.6061	-0.1318	93.240
159.237	949.60	-3.6062	-0.1318	93.249
159.245	949.60	-3.6062	-0.1318	93.257
159.253	949.60	-3.6063	-0.1318	93.265
159.262	949.60	-3.6064	-0.1318	93.273
159.270	949.61	-3.6064	-0.1318	93.279
159.278	949.61	-3.6065	-0.1318	93.286
159.287	949.61	-3.6066	-0.1318	93.291
159.295	949.61	-3.6066	-0.1318	93.296
159.303	949.61	-3.6066	-0.1318	93.301
159.312	949.61	-3.6067	-0.1318	93.305
159.320	949.61	-3.6067	-0.1318	93.310
159.328	949.61	-3.6067	-0.1318	93.315
159.337	949.61	-3.6067	-0.1318	93.319
159.345	949.61	-3.6068	-0.1318	93.324
159.353	949.61	-3.6068	-0.1318	93.328
159.362	949.61	-3.6068	-0.1318	93.333
159.370	949.61	-3.6068	-0.1318	93.337
159.378	949.61	-3.6069	-0.1318	93.342
159.387	949.61	-3.6069	-0.1318	93.347
159.395	949.61	-3.6069	-0.1318	93.352
159.403	949.61	-3.6070	-0.1318	93.357
159.412	949.61	-3.6070	-0.1319	93.363
159.420	949.61	-3.6071	-0.1319	93.370
159.428	949.61	-3.6071	-0.1319	93.376
159.437	949.61	-3.6072	-0.1319	93.383
159.445	949.61	-3.6072	-0.1319	93.390
159.453	949.62	-3.6073	-0.1319	93.397
159.462	949.62	-3.6073	-0.1319	93.403
159.470	949.62	-3.6074	-0.1319	93.409
159.478	949.62	-3.6074	-0.1319	93.415
159.487	949.62	-3.6075	-0.1319	93.421
159.495	949.62	-3.6075	-0.1319	93.427
159.503	949.62	-3.6076	-0.1319	93.433
159.512	949.62	-3.6077	-0.1319	93.440
159.520	949.62	-3.6077	-0.1319	93.448
159.528	949.62	-3.6077	-0.1319	93.456
159.537	949.62	-3.6078	-0.1319	93.464
159.545	949.62	-3.6078	-0.1319	93.473
159.553	949.62	-3.6078	-0.1319	93.481
159.562	949.62	-3.6078	-0.1319	93.490
159.570	949.62	-3.6079	-0.1319	93.500
159.578	949.62	-3.6079	-0.1319	93.509
159.587	949.62	-3.6079	-0.1319	93.518
159.595	949.62	-3.6079	-0.1319	93.527
159.603	949.62	-3.6079	-0.1319	93.534
159.612	949.62	-3.6080	-0.1319	93.541
159.620	949.62	-3.6080	-0.1319	93.549
159.628	949.62	-3.6080	-0.1319	93.557
159.637	949.62	-3.6081	-0.1319	93.564
159.645	949.62	-3.6081	-0.1319	93.572
159.653	949.62	-3.6082	-0.1319	93.579
159.662	949.62	-3.6083	-0.1319	93.586
159.670	949.62	-3.6083	-0.1319	93.593
159.678	949.62	-3.6084	-0.1319	93.601
159.687	949.62	-3.6084	-0.1319	93.609
159.695	949.62	-3.6085	-0.1319	93.617
159.703	949.62	-3.6085	-0.1319	93.625
159.712	949.62	-3.6086	-0.1319	93.634
159.720	949.62	-3.6086	-0.1319	93.643
159.728	949.62	-3.6086	-0.1319	93.653
159.737	949.62	-3.6087	-0.1319	93.663
159.745	949.62	-3.6087	-0.1319	93.673
159.753	949.62	-3.6087	-0.1319	93.683
159.762	949.63	-3.6088	-0.1319	93.692
159.770	949.63	-3.6088	-0.1319	93.700
159.778	949.63	-3.6088	-0.1319	93.709
159.787	949.63	-3.6089	-0.1319	93.717
159.795	949.63	-3.6089	-0.1319	93.724
159.803	949.63	-3.6089	-0.1319	93.731
159.812	949.63	-3.6090	-0.1319	93.737
159.820	949.63	-3.6090	-0.1319	93.743
159.828	949.63	-3.6091	-0.1319	93.748
159.837	949.63	-3.6091	-0.1319	93.753
159.845	949.63	-3.6092	-0.1319	93.758
159.853	949.63	-3.6092	-0.1319	93.762
159.862	949.63	-3.6093	-0.1319	93.766
159.870	949.63	-3.6094	-0.1319	93.770
159.878	949.63	-3.6095	-0.1319	93.773
159.887	949.63	-3.6096	-0.1319	93.777
159.895	949.63	-3.6096	-0.1319	93.781
159.903	949.63	-3.6097	-0.1319	93.784
159.912	949.63	-3.6098	-0.1320	93.788
159.920	949.63	-3.6099	-0.1320	93.792
159.928	949.63	-3.6100	-0.1320	93.795
159.937	949.63	-3.6100	-0.1320	93.800
159.945	949.63	-3.6101	-0.1320	93.804
159.953	949.63	-3.6102	-0.1320	93.809
159.962	949.63	-3.6102	-0.1320	93.813
159.970	949.63	-3.6103	-0.1320	93.819
159.978	949.63	-3.6103	-0.1320	93.824
159.987	949.63	-3.6104	-0.1320	93.830
159.995	949.63	-3.6104	-0.1320	93.836
160.003	949.63	-3.6104	-0.1320	93.841
160.012	949.63	-3.6105	-0.1320	93.847
160.020	949.63	-3.6106	-0.1320	93.853
160.028	949.63	-3.6106	-0.1320	93.859
160.037	949.63	-3.6107	-0.1320	93.865
160.045	949.63	-3.6107	-0.1320	93.870
160.053	949.64	-3.6108	-0.1320	93.876
160.062	949.64	-3.6109	-0.1320	93.882
160.070	949.64	-3.6109	-0.1320	93.888
160.078	949.64	-3.6110	-0.1320	93.894
160.087	949.64	-3.6111	-0.1320	93.900
160.095	949.64	-3.6112	-0.1320	93.906
160.103	949.64	-3.6112	-0.1320	93.911
160.112	949.64	-3.6113	-0.1320	93.917
160.120	949.64	-3.6113	-0.1320	93.923
160.128	949.64	-3.6113	-0.1320	93.929
160.137	949.64	-3.6114	-0.1320	93.934
160.145	949.64	-3.6114	-0.1320	93.940
160.153	949.64	-3.6115	-0.1320	93.946
160.162	949.64	-3.6115	-0.1320	93.951
160.170	949.64	-3.6116	-0.1320	93.957
160.178	949.64	-3.6117	-0.1320	93.963
160.187	949.64	-3.6117	-0.1320	93.969
160.195	949.64	-3.6118	-0.1320	93.975
160.203	949.64	-3.6119	-0.1320	93.981
160.212	949.64	-3.6120	-0.1320	93.987
160.220	949.64	-3.6120	-0.1320	93.993
160.228	949.64	-3.6121	-0.1320	93.999
160.237	949.64	-3.6121	-0.1320	94.005
160.245	949.64	-3.6121	-0.1320	94.011
160.253	949.64	-3.6122	-0.1320	94.018
160.262	949.64	-3.6122	-0.1320	94.024
160.270	949.64	-3.6122	-0.1320	94.030
160.278	949.64	-3.6122	-0.1320	94.036
160.287	949.64	-3.6123	-0.1320	94.043
160.295	949.64	-3.6123	-0.1320	94.050
160.303	949.64	-3.6124	-0.1320	94.058
160.312	949.64	-3.6124	-0.1320	94.066
160.320	949.64	-3.6125	-0.1321	94.074
160.328	949.64	-3.6126	-0.1321	94.082
160.337	949.64	-3.6127	-0.1321	94.090
160.345	949.64	-3.6128	-0.1321	94.097
160.353	949.64	-3.6129	-0.1321	94.105
160.362	949.64	-3.6129	-0.1321	94.112
160.370	949.64	-3.6130	-0.1321	94.119
160.378	949.64	-3.6131	-0.1321	94.125
160.387	949.64	-3.6132	-0.1321	94.130
160.395	949.64	-3.6132	-0.1321	94.134
160.403	949.64	-3.6133	-0.1321	94.139
160.412	949.64	-3.6134	-0.1321	94.144
160.420	949.64	-3.6134	-0.1321	94.150
160.428	949.64	-3.6134	-0.1321	94.156
160.437	949.65	-3.6135	-0.1321	94.163
160.445	949.65	-3.6135	-0.1321	94.169
160.453	949.65	-3.6136	-0.1321	94.177
160.462	949.65	-3.6136	-0.1321	94.184
160.470	949.65	-3.6137	-0.1321	94.191
160.478	949.65	-3.6137	-0.1321	94.198
160.487	949.65	-3.6138	-0.1321	94.205
160.495	949.65	-3.6139	-0.1321	94.212
160.503	949.65	-3.6139	-0.1321	94.218
160.512	949.65	-3.6140	-0.1321	94.224
160.520	949.65	-3.6141	-0.1321	94.231
160.528	949.65	-3.6141	-0.1321	94.237
160.537	949.65	-3.6142	-0.1321	94.243
160.545	949.65	-3.6142	-0.1321	94.250
160.553	949.65	-3.6143	-0.1321	94.257
160.562	949.65	-3.6143	-0.1321	94.264
160.570	949.65	-3.6144	-0.1321	94.270
160.578	949.65	-3.6144	-0.1321	94.277
160.587	949.65	-3.6144	-0.1321	94.283
160.595	949.65	-3.6145	-0.1321	94.289
160.603	949.65	-3.6145	-0.1321	94.294
160.612	949.65	-3.6145	-0.1321	94.299
160.620	949.65	-3.6146	-0.1321	94.303
160.628	949.65	-3.6146	-0.1321	94.308
160.637	949.65	-3.6146	-0.1321	94.312
160.645	949.65	-3.6146	-0.1321	94.317
160.653	949.65	-3.6146	-0.1321	94.322
160.662	949.65	-3.6146	-0.1321	94.328
160.670	949.65	-3.6147	-0.1321	94.333
160.678	949.65	-3.6147	-0.1321	94.337
160.687	949.65	-3.6147	-0.1321	94.342
160.695	949.65	-3.6148	-0.1321	94.346
160.703	949.65	-3.6149	-0.1321	94.351
160.712	949.65	-3.6149	-0.1321	94.355
160.720	949.65	-3.6150	-0.1321	94.359
160.728	949.65	-3.6151	-0.1321	94.363
160.737	949.65	-3.6152	-0.1322	94.367
160.745	949.65	-3.6153	-0.1322	94.372
160.753	949.65	-3.6154	-0.1322	94.377
160.762	949.65	-3.6155	-0.1322	94.382
160.770	949.65	-3.6155	-0.1322	94.387
160.778	949.65	-3.6156	-0.1322	94.392
160.787	949.65	-3.6156	-0.1322	94.397
160.795	949.65	-3.6156	-0.1322	94.401
160.803	949.65	-3.6157	-0.1322	94.405
160.812	949.65	-3.6157	-0.1322	94.409
160.820	949.65	-3.6157	-0.1322	94.412
160.828	949.66	-3.6158	-0.1322	94.414
160.837	949.66	-3.6158	-0.1322	94.416
160.845	949.66	-3.6159	-0.1322	94.419
160.853	949.66	-3.6159	-0.1322	94.422
160.862	949.66	-3.6160	-0.1322	94.425
160.870	949.66	-3.6161	-0.1322	94.427
160.878	949.66	-3.6162	-0.1322	94.430
160.887	949.66	-3.6163	-0.1322	94.433
160.895	949.66	-3.6164	-0.1322	94.435
160.903	949.66	-3.6165	-0.1322	94.437
160.912	949.66	-3.6166	-0.1322	94.440
160.920	949.66	-3.6166	-0.1322	94.442
160.928	949.66	-3.6167	-0.1322	94.443
160.937	949.66	-3.6168	-0.1322	94.445
160.945	949.66	-3.6168	-0.1322	94.446
160.953	949.66	-3.6169	-0.1322	94.448
160.962	949.66	-3.6169	-0.1322	94.451
160.970	949.66	-3.6169	-0.1322	94.454
160.978	949.66	-3.6170	-0.1322	94.457
160.987	949.66	-3.6170	-0.1322	94.460
160.995	949.66	-3.6171	-0.1322	94.463
161.003	949.66	-3.6171	-0.1322	94.466
161.012	949.66	-3.6172	-0.1322	94.469
161.020	949.66	-3.6172	-0.1322	94.472
161.028	949.66	-3.6173	-0.1322	94.476
161.037	949.66	-3.6173	-0.1322	94.479
161.045	949.66	-3.6174	-0.1322	94.482
161.053	949.66	-3.6174	-0.1322	94.485
161.062	949.66	-3.6174	-0.1322	94.488
161.070	949.66	-3.6175	-0.1322	94.491
161.078	949.66	-3.6175	-0.1322	94.494
161.087	949.66	-3.6175	-0.1322	94.498
161.095	949.66	-3.6175	-0.1322	94.502
161.103	949.66	-3.6176	-0.1322	94.505
161.112	949.66	-3.6176	-0.1322	94.509
161.120	949.66	-3.6176	-0.1322	94.512
161.128	949.66	-3.6176	-0.1322	94.516
161.137	949.66	-3.6177	-0.1322	94.520
161.145	949.66	-3.6177	-0.1322	94.524
161.153	949.66	-3.6177	-0.1322	94.528
161.162	949.66	-3.6177	-0.1322	94.532
161.170	949.67	-3.6177	-0.1322	94.536
161.178	949.67	-3.6177	-0.1322	94.540
161.187	949.67	-3.6177	-0.1322	94.544
161.195	949.67	-3.6178	-0.1322	94.549
161.203	949.67	-3.6178	-0.1322	94.553
161.212	949.67	-3.6178	-0.1322	94.558
161.220	949.67	-3.6178	-0.1322	94.562
161.228	949.67	-3.6178	-0.1322	94.566
161.237	949.67	-3.6179	-0.1322	94.571
161.245	949.67	-3.6179	-0.1322	94.575
161.253	949.67	-3.6180	-0.1323	94.579
161.262	949.67	-3.6180	-0.1323	94.584
161.270	949.67	-3.6181	-0.1323	94.588
161.278	949.67	-3.6182	-0.1323	94.592
161.287	949.67	-3.6182	-0.1323	94.597
161.295	949.67	-3.6183	-0.1323	94.601
161.303	949.67	-3.6184	-0.1323	94.606
161.312	949.67	-3.6185	-0.1323	94.611
161.320	949.67	-3.6185	-0.1323	94.616
161.328	949.67	-3.6186	-0.1323	94.621
161.337	949.67	-3.6187	-0.1323	94.627
161.345	949.67	-3.6188	-0.1323	94.633
161.353	949.67	-3.6189	-0.1323	94.640
161.362	949.67	-3.6190	-0.1323	94.647
161.370	949.67	-3.6190	-0.1323	94.654
161.378	949.67	-3.6191	-0.1323	94.662
161.387	949.67	-3.6192	-0.1323	94.669
161.395	949.67	-3.6193	-0.1323	94.677
161.403	949.67	-3.6194	-0.1323	94.685
161.412	949.67	-3.6194	-0.1323	94.692
161.420	949.67	-3.6195	-0.1323	94.700
161.428	949.67	-3.6196	-0.1323	94.707
161.437	949.67	-3.6196	-0.1323	94.713
161.445	949.67	-3.6197	-0.1323	94.719
161.453	949.67	-3.6197	-0.1323	94.724
161.462	949.67	-3.6197	-0.1323	94.729
161.470	949.67	-3.6198	-0.1323	94.735
161.478	949.67	-3.6199	-0.1323	94.740
161.487	949.67	-3.6199	-0.1323	94.745
161.495	949.67	-3.6199	-0.1323	94.750
161.503	949.67	-3.6200	-0.1323	94.755
161.512	949.67	-3.6200	-0.1323	94.761
161.520	949.67	-3.6201	-0.1323	94.767
161.528	949.67	-3.6201	-0.1323	94.772
161.537	949.67	-3.6202	-0.1323	94.778
161.545	949.67	-3.6202	-0.1323	94.783
161.553	949.67	-3.6203	-0.1323	94.788
161.562	949.67	-3.6203	-0.1323	94.793
161.570	949.67	-3.6203	-0.1323	94.798
161.578	949.67	-3.6204	-0.1323	94.802
161.587	949.67	-3.6204	-0.1323	94.806
161.595	949.67	-3.6204	-0.1323	94.809
161.603	949.67	-3.6205	-0.1323	94.812
161.612	949.67	-3.6205	-0.1323	94.815
161.620	949.67	-3.6205	-0.1323	94.818
161.628	949.67	-3.6206	-0.1323	94.821
161.637	949.67	-3.6206	-0.1323	94.824
161.645	949.67	-3.6207	-0.1323	94.827
161.653	949.67	-3.6207	-0.1324	94.830
161.662	949.67	-3.6208	-0.1324	94.833
161.670	949.67	-3.6209	-0.1324	94.837
161.678	949.67	-3.6209	-0.1324	94.840
161.687	949.67	-3.6210	-0.1324	94.843
161.695	949.67	-3.6211	-0.1324	94.846
161.703	949.67	-3.6212	-0.1324	94.849
161.712	949.67	-3.6212	-0.1324	94.852
161.720	949.67	-3.6213	-0.1324	94.854
161.728	949.67	-3.6213	-0.1324	94.857
161.737	949.67	-3.6213	-0.1324	94.859
161.745	949.67	-3.6214	-0.1324	94.862
161.753	949.67	-3.6214	-0.1324	94.864
161.762	949.67	-3.6214	-0.1324	94.867
161.770	949.67	-3.6214	-0.1324	94.869
161.778	949.68	-3.6215	-0.1324	94.872
161.787	949.68	-3.6215	-0.1324	94.874
161.795	949.68	-3.6215	-0.1324	94.877
161.803	949.68	-3.6215	-0.1324	94.880
161.812	949.68	-3.6215	-0.1324	94.884
161.820	949.68	-3.6216	-0.1324	94.888
161.828	949.68	-3.6216	-0.1324	94.892
161.837	949.68	-3.6216	-0.1324	94.896
161.845	949.68	-3.6216	-0.1324	94.900
161.853	949.68	-3.6216	-0.1324	94.904
161.862	949.68	-3.6216	-0.1324	94.907
161.870	949.68	-3.6216	-0.1324	94.911
161.878	949.68	-3.6216	-0.1324	94.915
161.887	949.68	-3.6216	-0.1324	94.919
161.895	949.68	-3.6216	-0.1324	94.922
161.903	949.68	-3.6216	-0.1324	94.925
161.912	949.68	-3.6216	-0.1324	94.928
161.920	949.68	-3.6216	-0.1324	94.932
161.928	949.68	-3.6215	-0.1324	94.935
161.937	949.68	-3.6215	-0.1324	94.939
161.945	949.68	-3.6216	-0.1324	94.942
161.953	949.68	-3.6216	-0.1324	94.946
161.962	949.68	-3.6216	-0.1324	94.949
161.970	949.68	-3.6216	-0.1324	94.953
161.978	949.68	-3.6217	-0.1324	94.957
161.987	949.68	-3.6217	-0.1324	94.961
161.995	949.68	-3.6218	-0.1324	94.965
162.003	949.68	-3.6218	-0.1324	94.968
162.012	949.68	-3.6219	-0.1324	94.972
162.020	949.68	-3.6219	-0.1324	94.976
162.028	949.68	-3.6220	-0.1324	94.979
162.037	949.68	-3.6221	-0.1324	94.983
162.045	949.68	-3.6221	-0.1324	94.987
162.053	949.68	-3.6222	-0.1324	94.991
162.062	949.68	-3.6223	-0.1324	94.995
162.070	949.68	-3.6223	-0.1324	95.000
162.078	949.68	-3.6224	-0.1324	95.005
162.087	949.68	-3.6224	-0.1324	95.010
162.095	949.68	-3.6225	-0.1324	95.015
162.103	949.68	-3.6225	-0.1324	95.020
162.112	949.68	-3.6226	-0.1324	95.025
162.120	949.68	-3.6226	-0.1324	95.031
162.128	949.68	-3.6227	-0.1324	95.036
162.137	949.68	-3.6227	-0.1324	95.042
162.145	949.68	-3.6227	-0.1324	95.049
162.153	949.68	-3.6228	-0.1324	95.054
162.162	949.68	-3.6228	-0.1324	95.060
162.170	949.68	-3.6228	-0.1324	95.065
162.178	949.68	-3.6229	-0.1324	95.071
162.187	949.68	-3.6230	-0.1324	95.077
162.195	949.68	-3.6230	-0.1324	95.083
162.203	949.68	-3.6231	-0.1324	95.088
162.212	949.68	-3.6231	-0.1324	95.094
162.220	949.68	-3.6232	-0.1324	95.099
162.228	949.68	-3.6232	-0.1324	95.103
162.237	949.68	-3.6233	-0.1324	95.108
162.245	949.68	-3.6233	-0.1324	95.112
162.253	949.68	-3.6233	-0.1324	95.116
162.262	949.68	-3.6233	-0.1324	95.119
162.270	949.68	-3.6234	-0.1324	95.123
162.278	949.68	-3.6234	-0.1324	95.126
162.287	949.68	-3.6234	-0.1324	95.129
162.295	949.68	-3.6234	-0.1324	95.132
162.303	949.68	-3.6234	-0.1325	95.135
162.312	949.68	-3.6235	-0.1325	95.139
162.320	949.68	-3.6235	-0.1325	95.143
162.328	949.68	-3.6235	-0.1325	95.147
162.337	949.68	-3.6235	-0.1325	95.151
162.345	949.68	-3.6235	-0.1325	95.155
162.353	949.68	-3.6236	-0.1325	95.160
162.362	949.68	-3.6236	-0.1325	95.166
162.370	949.68	-3.6236	-0.1325	95.171
162.378	949.68	-3.6236	-0.1325	95.178
162.387	949.68	-3.6236	-0.1325	95.184
162.395	949.68	-3.6236	-0.1325	95.191
162.403	949.69	-3.6236	-0.1325	95.198
162.412	949.68	-3.6237	-0.1325	95.206
162.420	949.68	-3.6237	-0.1325	95.213
162.428	949.68	-3.6238	-0.1325	95.219
162.437	949.68	-3.6238	-0.1325	95.226
162.445	949.68	-3.6239	-0.1325	95.232
162.453	949.68	-3.6240	-0.1325	95.237
162.462	949.68	-3.6241	-0.1325	95.243
162.470	949.68	-3.6241	-0.1325	95.248
162.478	949.68	-3.6242	-0.1325	95.253
162.487	949.68	-3.6243	-0.1325	95.256
162.495	949.68	-3.6244	-0.1325	95.260
162.503	949.69	-3.6245	-0.1325	95.263
162.512	949.69	-3.6245	-0.1325	95.267
162.520	949.69	-3.6246	-0.1325	95.270
162.528	949.69	-3.6247	-0.1325	95.274
162.537	949.69	-3.6248	-0.1325	95.277
162.545	949.69	-3.6248	-0.1325	95.280
162.553	949.69	-3.6249	-0.1325	95.283
162.562	949.69	-3.6250	-0.1325	95.285
162.570	949.69	-3.6251	-0.1325	95.288
162.578	949.69	-3.6252	-0.1325	95.290
162.587	949.69	-3.6253	-0.1325	95.292
162.595	949.69	-3.6253	-0.1325	95.295
162.603		-3.6254	-0.1325
162.612		-3.6254	-0.1325
162.620		-3.6255	-0.1325
162.628		-3.6255	-0.1325
162.637		-3.6256	-0.1325