File: PSO Kinetics/data/softwood-10Kmin_2.txt
Filename	softwood-10Kmin_2
Instrument name	0650-0369 (192.168.1.2)
Operator	ca527
rundate	1/9/2023
Sample name	softwood-10Kmin_2
proceduresegments	Select Gas: Gas 1 ; Ramp 10.00 °C/min to 110.00 °C; Isothermal 30.0 min; Ramp 10.00 °C/min to 900.00 °C; Isothermal 30.0 min; Select Gas: Gas 2 ; Ramp 10.00 °C/min to 950.00 °C; Isothermal 10.0 min; Data Off ; Equilibrate 30.00 °C
[step]
Ramp 10.00 °C/min to 110.00 °C
Time	Temperature	Weight	Weight	Heat Flow
min	°C	%	mg	mW
0.003		100.0264	4.2976
0.012		100.0626	4.2992
0.020		100.1007	4.3008
0.028		100.1335	4.3022
0.037		100.1584	4.3033
0.045	22.41	100.1758	4.3040	-28.172
0.053	22.45	100.1873	4.3045	-28.126
0.062	22.48	100.1947	4.3048	-28.087
0.070	22.52	100.1997	4.3051	-28.051
0.078	22.55	100.2032	4.3052	-28.016
0.087	22.59	100.2058	4.3053	-27.981
0.095	22.62	100.2080	4.3054	-27.947
0.103	22.66	100.2099	4.3055	-27.913
0.112	22.69	100.2116	4.3056	-27.881
0.120	22.73	100.2130	4.3056	-27.849
0.128	22.76	100.2142	4.3057	-27.817
0.137	22.80	100.2152	4.3057	-27.787
0.145	22.83	100.2161	4.3058	-27.757
0.153	22.87	100.2168	4.3058	-27.728
0.162	22.90	100.2173	4.3058	-27.699
0.170	22.93	100.2177	4.3058	-27.670
0.178	22.97	100.2180	4.3058	-27.642
0.187	23.00	100.2181	4.3058	-27.614
0.195	23.04	100.2181	4.3058	-27.586
0.203	23.07	100.2179	4.3058	-27.558
0.212	23.10	100.2177	4.3058	-27.531
0.220	23.14	100.2174	4.3058	-27.504
0.228	23.17	100.2169	4.3058	-27.476
0.237	23.20	100.2163	4.3058	-27.449
0.245	23.24	100.2156	4.3057	-27.421
0.253	23.27	100.2148	4.3057	-27.395
0.262	23.30	100.2138	4.3057	-27.369
0.270	23.33	100.2127	4.3056	-27.344
0.278	23.37	100.2115	4.3056	-27.317
0.287	23.40	100.2101	4.3055	-27.290
0.295	23.43	100.2086	4.3054	-27.265
0.303	23.47	100.2070	4.3054	-27.239
0.312	23.50	100.2053	4.3053	-27.213
0.320	23.53	100.2034	4.3052	-27.187
0.328	23.57	100.2013	4.3051	-27.161
0.337	23.60	100.1992	4.3050	-27.136
0.345	23.63	100.1969	4.3049	-27.111
0.353	23.67	100.1945	4.3048	-27.086
0.362	23.70	100.1920	4.3047	-27.063
0.370	23.73	100.1894	4.3046	-27.040
0.378	23.76	100.1867	4.3045	-27.015
0.387	23.80	100.1839	4.3044	-26.991
0.395	23.83	100.1810	4.3042	-26.969
0.403	23.86	100.1779	4.3041	-26.948
0.412	23.90	100.1748	4.3040	-26.926
0.420	23.93	100.1715	4.3038	-26.904
0.428	23.96	100.1681	4.3037	-26.881
0.437	24.00	100.1647	4.3035	-26.860
0.445	24.03	100.1611	4.3034	-26.838
0.453	24.07	100.1573	4.3032	-26.818
0.462	24.10	100.1535	4.3031	-26.798
0.470	24.14	100.1495	4.3029	-26.779
0.478	24.17	100.1454	4.3027	-26.759
0.487	24.21	100.1411	4.3025	-26.740
0.495	24.24	100.1368	4.3024	-26.722
0.503	24.28	100.1323	4.3022	-26.706
0.512	24.32	100.1277	4.3020	-26.690
0.520	24.35	100.1230	4.3018	-26.675
0.528	24.39	100.1182	4.3016	-26.659
0.537	24.43	100.1132	4.3013	-26.643
0.545	24.46	100.1081	4.3011	-26.627
0.553	24.50	100.1029	4.3009	-26.611
0.562	24.54	100.0976	4.3007	-26.596
0.570	24.58	100.0922	4.3004	-26.582
0.578	24.62	100.0867	4.3002	-26.568
0.587	24.66	100.0812	4.3000	-26.554
0.595	24.70	100.0756	4.2997	-26.539
0.603	24.74	100.0699	4.2995	-26.525
0.612	24.78	100.0643	4.2992	-26.512
0.620	24.82	100.0586	4.2990	-26.499
0.628	24.86	100.0529	4.2987	-26.486
0.637	24.91	100.0472	4.2985	-26.475
0.645	24.95	100.0415	4.2983	-26.463
0.653	24.99	100.0358	4.2980	-26.451
0.662	25.03	100.0300	4.2978	-26.438
0.670	25.08	100.0242	4.2975	-26.426
0.678	25.12	100.0185	4.2973	-26.413
0.687	25.16	100.0127	4.2970	-26.401
0.695	25.21	100.0070	4.2968	-26.390
0.703	25.25	100.0012	4.2965	-26.380
0.712	25.30	99.9955	4.2963	-26.369
0.720	25.35	99.9898	4.2960	-26.358
0.728	25.39	99.9841	4.2958	-26.347
0.737	25.44	99.9784	4.2955	-26.337
0.745	25.49	99.9728	4.2953	-26.326
0.753	25.53	99.9672	4.2951	-26.315
0.762	25.58	99.9617	4.2948	-26.304
0.770	25.63	99.9562	4.2946	-26.293
0.778	25.68	99.9507	4.2944	-26.281
0.787	25.73	99.9452	4.2941	-26.269
0.795	25.78	99.9398	4.2939	-26.258
0.803	25.83	99.9344	4.2937	-26.245
0.812	25.88	99.9291	4.2934	-26.233
0.820	25.93	99.9239	4.2932	-26.220
0.828	25.98	99.9186	4.2930	-26.207
0.837	26.04	99.9135	4.2928	-26.193
0.845	26.09	99.9084	4.2925	-26.179
0.853	26.14	99.9033	4.2923	-26.165
0.862	26.20	99.8983	4.2921	-26.151
0.870	26.25	99.8933	4.2919	-26.138
0.878	26.30	99.8884	4.2917	-26.123
0.887	26.36	99.8836	4.2915	-26.108
0.895	26.41	99.8788	4.2913	-26.091
0.903	26.47	99.8740	4.2911	-26.073
0.912	26.53	99.8693	4.2909	-26.055
0.920	26.58	99.8646	4.2907	-26.037
0.928	26.64	99.8600	4.2905	-26.018
0.937	26.70	99.8554	4.2903	-25.998
0.945	26.76	99.8508	4.2901	-25.977
0.953	26.82	99.8463	4.2899	-25.955
0.962	26.88	99.8419	4.2897	-25.934
0.970	26.94	99.8375	4.2895	-25.912
0.978	27.00	99.8331	4.2893	-25.890
0.987	27.06	99.8288	4.2891	-25.868
0.995	27.12	99.8245	4.2889	-25.845
1.003	27.18	99.8202	4.2887	-25.822
1.012	27.24	99.8159	4.2886	-25.798
1.020	27.30	99.8117	4.2884	-25.774
1.028	27.37	99.8075	4.2882	-25.750
1.037	27.43	99.8033	4.2880	-25.724
1.045	27.49	99.7991	4.2878	-25.697
1.053	27.56	99.7950	4.2877	-25.669
1.062	27.62	99.7908	4.2875	-25.641
1.070	27.69	99.7867	4.2873	-25.612
1.078	27.75	99.7825	4.2871	-25.584
1.087	27.82	99.7784	4.2870	-25.553
1.095	27.89	99.7743	4.2868	-25.523
1.103	27.95	99.7701	4.2866	-25.492
1.112	28.02	99.7660	4.2864	-25.459
1.120	28.09	99.7619	4.2862	-25.427
1.128	28.15	99.7578	4.2861	-25.394
1.137	28.22	99.7537	4.2859	-25.360
1.145	28.29	99.7495	4.2857	-25.326
1.153	28.36	99.7454	4.2855	-25.291
1.162	28.43	99.7413	4.2854	-25.254
1.170	28.50	99.7371	4.2852	-25.217
1.178	28.57	99.7329	4.2850	-25.180
1.187	28.64	99.7287	4.2848	-25.141
1.195	28.71	99.7245	4.2846	-25.103
1.203	28.79	99.7203	4.2845	-25.064
1.212	28.86	99.7161	4.2843	-25.023
1.220	28.93	99.7118	4.2841	-24.982
1.228	29.01	99.7076	4.2839	-24.941
1.237	29.08	99.7033	4.2837	-24.899
1.245	29.15	99.6990	4.2835	-24.856
1.253	29.23	99.6948	4.2834	-24.815
1.262	29.30	99.6905	4.2832	-24.772
1.270	29.38	99.6862	4.2830	-24.728
1.278	29.45	99.6819	4.2828	-24.683
1.287	29.53	99.6775	4.2826	-24.638
1.295	29.61	99.6732	4.2824	-24.593
1.303	29.68	99.6688	4.2822	-24.548
1.312	29.76	99.6644	4.2821	-24.503
1.320	29.84	99.6600	4.2819	-24.457
1.328	29.91	99.6556	4.2817	-24.410
1.337	29.99	99.6511	4.2815	-24.362
1.345	30.07	99.6467	4.2813	-24.315
1.353	30.15	99.6422	4.2811	-24.268
1.362	30.23	99.6376	4.2809	-24.221
1.370	30.31	99.6331	4.2807	-24.172
1.378	30.39	99.6285	4.2805	-24.123
1.387	30.47	99.6239	4.2803	-24.074
1.395	30.55	99.6193	4.2801	-24.023
1.403	30.63	99.6147	4.2799	-23.973
1.412	30.71	99.6101	4.2797	-23.922
1.420	30.79	99.6054	4.2795	-23.871
1.428	30.87	99.6008	4.2793	-23.819
1.437	30.95	99.5961	4.2791	-23.766
1.445	31.03	99.5913	4.2789	-23.713
1.453	31.11	99.5866	4.2787	-23.662
1.462	31.20	99.5818	4.2785	-23.609
1.470	31.28	99.5771	4.2783	-23.556
1.478	31.36	99.5723	4.2781	-23.503
1.487	31.44	99.5675	4.2779	-23.449
1.495	31.53	99.5626	4.2777	-23.396
1.503	31.61	99.5577	4.2775	-23.341
1.512	31.70	99.5529	4.2773	-23.285
1.520	31.78	99.5479	4.2771	-23.230
1.528	31.87	99.5430	4.2768	-23.174
1.537	31.95	99.5380	4.2766	-23.117
1.545	32.04	99.5330	4.2764	-23.060
1.553	32.12	99.5280	4.2762	-23.003
1.562	32.21	99.5230	4.2760	-22.945
1.570	32.29	99.5180	4.2758	-22.886
1.578	32.38	99.5129	4.2755	-22.827
1.587	32.46	99.5079	4.2753	-22.768
1.595	32.55	99.5028	4.2751	-22.711
1.603	32.64	99.4977	4.2749	-22.652
1.612	32.72	99.4926	4.2747	-22.593
1.620	32.81	99.4875	4.2745	-22.534
1.628	32.90	99.4823	4.2742	-22.473
1.637	32.99	99.4772	4.2740	-22.414
1.645	33.07	99.4720	4.2738	-22.355
1.653	33.16	99.4668	4.2736	-22.296
1.662	33.25	99.4616	4.2733	-22.236
1.670	33.34	99.4564	4.2731	-22.175
1.678	33.43	99.4512	4.2729	-22.114
1.687	33.51	99.4459	4.2727	-22.054
1.695	33.60	99.4407	4.2724	-21.992
1.703	33.69	99.4354	4.2722	-21.929
1.712	33.78	99.4301	4.2720	-21.867
1.720	33.87	99.4248	4.2718	-21.806
1.728	33.96	99.4195	4.2715	-21.743
1.737	34.05	99.4141	4.2713	-21.680
1.745	34.14	99.4087	4.2711	-21.617
1.753	34.23	99.4034	4.2708	-21.554
1.762	34.32	99.3979	4.2706	-21.491
1.770	34.41	99.3925	4.2704	-21.426
1.778	34.50	99.3871	4.2701	-21.363
1.787	34.59	99.3816	4.2699	-21.301
1.795	34.68	99.3762	4.2697	-21.237
1.803	34.77	99.3707	4.2694	-21.172
1.812	34.86	99.3652	4.2692	-21.108
1.820	34.96	99.3598	4.2690	-21.044
1.828	35.05	99.3543	4.2687	-20.981
1.837	35.14	99.3487	4.2685	-20.917
1.845	35.23	99.3432	4.2683	-20.853
1.853	35.32	99.3377	4.2680	-20.789
1.862	35.41	99.3321	4.2678	-20.723
1.870	35.50	99.3265	4.2675	-20.658
1.878	35.60	99.3209	4.2673	-20.592
1.887	35.69	99.3153	4.2671	-20.526
1.895	35.78	99.3097	4.2668	-20.460
1.903	35.87	99.3040	4.2666	-20.394
1.912	35.97	99.2984	4.2663	-20.329
1.920	36.06	99.2927	4.2661	-20.263
1.928	36.15	99.2871	4.2658	-20.195
1.937	36.24	99.2814	4.2656	-20.128
1.945	36.34	99.2757	4.2654	-20.062
1.953	36.43	99.2699	4.2651	-19.995
1.962	36.52	99.2642	4.2649	-19.929
1.970	36.61	99.2585	4.2646	-19.863
1.978	36.71	99.2528	4.2644	-19.797
1.987	36.80	99.2470	4.2641	-19.732
1.995	36.89	99.2413	4.2639	-19.665
2.003	36.99	99.2355	4.2636	-19.597
2.012	37.08	99.2297	4.2634	-19.531
2.020	37.17	99.2239	4.2631	-19.465
2.028	37.27	99.2181	4.2629	-19.398
2.037	37.36	99.2123	4.2626	-19.331
2.045	37.45	99.2064	4.2624	-19.264
2.053	37.55	99.2006	4.2621	-19.196
2.062	37.64	99.1947	4.2619	-19.128
2.070	37.73	99.1888	4.2616	-19.057
2.078	37.83	99.1829	4.2614	-18.989
2.087	37.92	99.1770	4.2611	-18.921
2.095	38.01	99.1711	4.2609	-18.854
2.103	38.11	99.1651	4.2606	-18.785
2.112	38.20	99.1591	4.2603	-18.717
2.120	38.29	99.1531	4.2601	-18.649
2.128	38.39	99.1471	4.2598	-18.581
2.137	38.48	99.1411	4.2596	-18.513
2.145	38.58	99.1350	4.2593	-18.446
2.153	38.67	99.1290	4.2591	-18.379
2.162	38.76	99.1229	4.2588	-18.311
2.170	38.86	99.1168	4.2585	-18.242
2.178	38.95	99.1108	4.2583	-18.172
2.187	39.04	99.1047	4.2580	-18.102
2.195	39.14	99.0986	4.2577	-18.033
2.203	39.23	99.0925	4.2575	-17.964
2.212	39.32	99.0864	4.2572	-17.895
2.220	39.42	99.0802	4.2570	-17.827
2.228	39.51	99.0741	4.2567	-17.757
2.237	39.61	99.0680	4.2564	-17.687
2.245	39.70	99.0618	4.2562	-17.619
2.253	39.80	99.0556	4.2559	-17.551
2.262	39.89	99.0494	4.2556	-17.483
2.270	39.98	99.0433	4.2554	-17.415
2.278	40.08	99.0370	4.2551	-17.346
2.287	40.17	99.0308	4.2548	-17.277
2.295	40.27	99.0246	4.2546	-17.208
2.303	40.36	99.0184	4.2543	-17.138
2.312	40.45	99.0121	4.2540	-17.068
2.320	40.55	99.0058	4.2538	-16.999
2.328	40.64	98.9995	4.2535	-16.930
2.337	40.74	98.9932	4.2532	-16.861
2.345	40.83	98.9868	4.2529	-16.792
2.353	40.92	98.9805	4.2527	-16.724
2.362	41.02	98.9741	4.2524	-16.655
2.370	41.11	98.9678	4.2521	-16.587
2.378	41.21	98.9614	4.2519	-16.519
2.387	41.30	98.9551	4.2516	-16.452
2.395	41.39	98.9487	4.2513	-16.384
2.403	41.49	98.9424	4.2510	-16.317
2.412	41.58	98.9360	4.2508	-16.248
2.420	41.67	98.9297	4.2505	-16.178
2.428	41.77	98.9233	4.2502	-16.110
2.437	41.86	98.9169	4.2499	-16.041
2.445	41.96	98.9105	4.2497	-15.973
2.453	42.05	98.9040	4.2494	-15.904
2.462	42.14	98.8976	4.2491	-15.835
2.470	42.24	98.8911	4.2488	-15.765
2.478	42.33	98.8847	4.2486	-15.695
2.487	42.43	98.8782	4.2483	-15.626
2.495	42.52	98.8717	4.2480	-15.558
2.503	42.61	98.8652	4.2477	-15.490
2.512	42.71	98.8587	4.2474	-15.421
2.520	42.80	98.8521	4.2472	-15.353
2.528	42.89	98.8456	4.2469	-15.285
2.537	42.98	98.8390	4.2466	-15.218
2.545	43.08	98.8325	4.2463	-15.151
2.553	43.17	98.8259	4.2460	-15.086
2.562	43.26	98.8193	4.2457	-15.020
2.570	43.36	98.8128	4.2455	-14.954
2.578	43.45	98.8062	4.2452	-14.889
2.587	43.54	98.7996	4.2449	-14.822
2.595	43.64	98.7929	4.2446	-14.757
2.603	43.73	98.7863	4.2443	-14.691
2.612	43.82	98.7797	4.2440	-14.624
2.620	43.91	98.7730	4.2438	-14.557
2.628	44.01	98.7663	4.2435	-14.489
2.637	44.10	98.7596	4.2432	-14.422
2.645	44.19	98.7529	4.2429	-14.355
2.653	44.28	98.7462	4.2426	-14.287
2.662	44.38	98.7395	4.2423	-14.218
2.670	44.47	98.7327	4.2420	-14.151
2.678	44.56	98.7259	4.2417	-14.084
2.687	44.66	98.7191	4.2414	-14.016
2.695	44.75	98.7123	4.2411	-13.949
2.703	44.84	98.7055	4.2409	-13.882
2.712	44.93	98.6987	4.2406	-13.815
2.720	45.02	98.6919	4.2403	-13.749
2.728	45.12	98.6850	4.2400	-13.683
2.737	45.21	98.6782	4.2397	-13.617
2.745	45.30	98.6713	4.2394	-13.554
2.753	45.39	98.6644	4.2391	-13.489
2.762	45.48	98.6575	4.2388	-13.423
2.770	45.57	98.6506	4.2385	-13.358
2.778	45.66	98.6437	4.2382	-13.293
2.787	45.76	98.6367	4.2379	-13.230
2.795	45.85	98.6298	4.2376	-13.165
2.803	45.94	98.6229	4.2373	-13.100
2.812	46.03	98.6159	4.2370	-13.034
2.820	46.12	98.6089	4.2367	-12.969
2.828	46.21	98.6020	4.2364	-12.903
2.837	46.30	98.5950	4.2361	-12.839
2.845	46.40	98.5881	4.2358	-12.776
2.853	46.49	98.5811	4.2355	-12.712
2.862	46.58	98.5741	4.2352	-12.648
2.870	46.67	98.5672	4.2349	-12.585
2.878	46.76	98.5602	4.2346	-12.522
2.887	46.85	98.5532	4.2343	-12.459
2.895	46.94	98.5463	4.2340	-12.398
2.903	47.03	98.5393	4.2337	-12.337
2.912	47.12	98.5324	4.2334	-12.275
2.920	47.21	98.5254	4.2331	-12.212
2.928	47.30	98.5184	4.2328	-12.149
2.937	47.39	98.5114	4.2325	-12.085
2.945	47.48	98.5044	4.2322	-12.022
2.953	47.57	98.4973	4.2319	-11.959
2.962	47.66	98.4903	4.2316	-11.898
2.970	47.75	98.4832	4.2313	-11.836
2.978	47.84	98.4761	4.2310	-11.772
2.987	47.93	98.4690	4.2307	-11.709
2.995	48.02	98.4619	4.2304	-11.647
3.003	48.11	98.4548	4.2301	-11.585
3.012	48.20	98.4477	4.2298	-11.523
3.020	48.29	98.4406	4.2295	-11.461
3.028	48.38	98.4336	4.2292	-11.401
3.037	48.47	98.4265	4.2289	-11.339
3.045	48.56	98.4194	4.2286	-11.278
3.053	48.65	98.4123	4.2283	-11.216
3.062	48.74	98.4052	4.2280	-11.156
3.070	48.83	98.3980	4.2276	-11.094
3.078	48.92	98.3909	4.2273	-11.034
3.087	49.01	98.3837	4.2270	-10.974
3.095	49.10	98.3765	4.2267	-10.914
3.103	49.19	98.3693	4.2264	-10.854
3.112	49.28	98.3621	4.2261	-10.794
3.120	49.36	98.3549	4.2258	-10.735
3.128	49.45	98.3477	4.2255	-10.675
3.137	49.54	98.3404	4.2252	-10.616
3.145	49.63	98.3332	4.2249	-10.556
3.153	49.72	98.3260	4.2245	-10.497
3.162	49.81	98.3187	4.2242	-10.437
3.170	49.90	98.3115	4.2239	-10.377
3.178	49.99	98.3042	4.2236	-10.318
3.187	50.07	98.2970	4.2233	-10.259
3.195	50.16	98.2897	4.2230	-10.199
3.203	50.25	98.2825	4.2227	-10.139
3.212	50.34	98.2752	4.2224	-10.080
3.220	50.43	98.2680	4.2221	-10.021
3.228	50.52	98.2607	4.2217	-9.963
3.237	50.60	98.2534	4.2214	-9.904
3.245	50.69	98.2462	4.2211	-9.847
3.253	50.78	98.2389	4.2208	-9.789
3.262	50.87	98.2316	4.2205	-9.731
3.270	50.96	98.2244	4.2202	-9.674
3.278	51.05	98.2171	4.2199	-9.617
3.287	51.13	98.2098	4.2196	-9.560
3.295	51.22	98.2024	4.2192	-9.502
3.303	51.31	98.1951	4.2189	-9.445
3.312	51.40	98.1878	4.2186	-9.388
3.320	51.48	98.1805	4.2183	-9.332
3.328	51.57	98.1731	4.2180	-9.275
3.337	51.66	98.1658	4.2177	-9.219
3.345	51.74	98.1584	4.2174	-9.162
3.353	51.83	98.1510	4.2170	-9.106
3.362	51.92	98.1437	4.2167	-9.050
3.370	52.01	98.1364	4.2164	-8.995
3.378	52.09	98.1290	4.2161	-8.940
3.387	52.18	98.1217	4.2158	-8.884
3.395	52.27	98.1143	4.2155	-8.829
3.403	52.36	98.1070	4.2151	-8.773
3.412	52.44	98.0997	4.2148	-8.717
3.420	52.53	98.0923	4.2145	-8.663
3.428	52.62	98.0850	4.2142	-8.610
3.437	52.70	98.0776	4.2139	-8.555
3.445	52.79	98.0703	4.2136	-8.500
3.453	52.88	98.0629	4.2132	-8.444
3.462	52.97	98.0555	4.2129	-8.390
3.470	53.05	98.0481	4.2126	-8.335
3.478	53.14	98.0407	4.2123	-8.281
3.487	53.23	98.0333	4.2120	-8.227
3.495	53.31	98.0259	4.2117	-8.172
3.503	53.40	98.0186	4.2113	-8.118
3.512	53.49	98.0112	4.2110	-8.063
3.520	53.57	98.0038	4.2107	-8.009
3.528	53.66	97.9964	4.2104	-7.956
3.537	53.75	97.9891	4.2101	-7.902
3.545	53.83	97.9817	4.2098	-7.850
3.553	53.92	97.9743	4.2094	-7.797
3.562	54.00	97.9669	4.2091	-7.745
3.570	54.09	97.9596	4.2088	-7.694
3.578	54.18	97.9522	4.2085	-7.641
3.587	54.26	97.9448	4.2082	-7.589
3.595	54.35	97.9374	4.2079	-7.538
3.603	54.44	97.9300	4.2075	-7.485
3.612	54.52	97.9227	4.2072	-7.435
3.620	54.61	97.9153	4.2069	-7.383
3.628	54.69	97.9079	4.2066	-7.332
3.637	54.78	97.9006	4.2063	-7.280
3.645	54.87	97.8932	4.2060	-7.229
3.653	54.95	97.8859	4.2056	-7.177
3.662	55.04	97.8785	4.2053	-7.126
3.670	55.12	97.8712	4.2050	-7.074
3.678	55.21	97.8638	4.2047	-7.023
3.687	55.29	97.8565	4.2044	-6.973
3.695	55.38	97.8492	4.2041	-6.921
3.703	55.47	97.8418	4.2037	-6.869
3.712	55.55	97.8345	4.2034	-6.818
3.720	55.64	97.8272	4.2031	-6.768
3.728	55.72	97.8199	4.2028	-6.718
3.737	55.81	97.8127	4.2025	-6.667
3.745	55.90	97.8054	4.2022	-6.617
3.753	55.98	97.7982	4.2019	-6.567
3.762	56.07	97.7909	4.2016	-6.517
3.770	56.15	97.7837	4.2013	-6.466
3.778	56.24	97.7764	4.2009	-6.415
3.787	56.32	97.7692	4.2006	-6.365
3.795	56.41	97.7620	4.2003	-6.316
3.803	56.49	97.7547	4.2000	-6.266
3.812	56.58	97.7475	4.1997	-6.216
3.820	56.67	97.7403	4.1994	-6.167
3.828	56.75	97.7331	4.1991	-6.118
3.837	56.84	97.7258	4.1988	-6.069
3.845	56.92	97.7186	4.1985	-6.020
3.853	57.01	97.7114	4.1981	-5.972
3.862	57.09	97.7042	4.1978	-5.924
3.870	57.18	97.6969	4.1975	-5.876
3.878	57.26	97.6897	4.1972	-5.829
3.887	57.35	97.6825	4.1969	-5.781
3.895	57.43	97.6753	4.1966	-5.733
3.903	57.52	97.6680	4.1963	-5.686
3.912	57.60	97.6608	4.1960	-5.637
3.920	57.69	97.6536	4.1957	-5.589
3.928	57.78	97.6464	4.1954	-5.541
3.937	57.86	97.6392	4.1950	-5.494
3.945	57.95	97.6320	4.1947	-5.446
3.953	58.03	97.6248	4.1944	-5.399
3.962	58.12	97.6176	4.1941	-5.352
3.970	58.20	97.6105	4.1938	-5.304
3.978	58.29	97.6033	4.1935	-5.256
3.987	58.37	97.5962	4.1932	-5.209
3.995	58.46	97.5890	4.1929	-5.162
4.003	58.54	97.5820	4.1926	-5.117
4.012	58.63	97.5749	4.1923	-5.070
4.020	58.71	97.5678	4.1920	-5.023
4.028	58.80	97.5608	4.1917	-4.977
4.037	58.88	97.5538	4.1914	-4.932
4.045	58.97	97.5468	4.1911	-4.886
4.053	59.05	97.5398	4.1908	-4.840
4.062	59.14	97.5328	4.1905	-4.794
4.070	59.22	97.5259	4.1902	-4.749
4.078	59.31	97.5189	4.1899	-4.703
4.087	59.39	97.5119	4.1896	-4.657
4.095	59.48	97.5050	4.1893	-4.611
4.103	59.56	97.4981	4.1890	-4.566
4.112	59.65	97.4911	4.1887	-4.521
4.120	59.73	97.4842	4.1884	-4.475
4.128	59.82	97.4773	4.1881	-4.429
4.137	59.90	97.4704	4.1878	-4.384
4.145	59.99	97.4635	4.1875	-4.339
4.153	60.07	97.4566	4.1872	-4.294
4.162	60.16	97.4497	4.1869	-4.249
4.170	60.24	97.4428	4.1866	-4.204
4.178	60.33	97.4360	4.1863	-4.159
4.187	60.41	97.4292	4.1860	-4.113
4.195	60.50	97.4224	4.1857	-4.069
4.203	60.58	97.4156	4.1854	-4.023
4.212	60.67	97.4088	4.1851	-3.978
4.220	60.75	97.4020	4.1849	-3.933
4.228	60.84	97.3952	4.1846	-3.888
4.237	60.92	97.3884	4.1843	-3.844
4.245	61.01	97.3817	4.1840	-3.800
4.253	61.09	97.3749	4.1837	-3.757
4.262	61.18	97.3682	4.1834	-3.712
4.270	61.26	97.3615	4.1831	-3.669
4.278	61.35	97.3547	4.1828	-3.624
4.287	61.43	97.3480	4.1825	-3.581
4.295	61.52	97.3414	4.1822	-3.539
4.303	61.60	97.3347	4.1820	-3.497
4.312	61.69	97.3281	4.1817	-3.454
4.320	61.77	97.3215	4.1814	-3.411
4.328	61.86	97.3150	4.1811	-3.368
4.337	61.94	97.3084	4.1808	-3.326
4.345	62.03	97.3019	4.1806	-3.284
4.353	62.11	97.2954	4.1803	-3.242
4.362	62.20	97.2889	4.1800	-3.200
4.370	62.28	97.2824	4.1797	-3.158
4.378	62.37	97.2759	4.1794	-3.115
4.387	62.45	97.2695	4.1792	-3.071
4.395	62.54	97.2630	4.1789	-3.027
4.403	62.62	97.2565	4.1786	-2.983
4.412	62.70	97.2501	4.1783	-2.940
4.420	62.79	97.2436	4.1780	-2.896
4.428	62.87	97.2372	4.1778	-2.854
4.437	62.96	97.2308	4.1775	-2.810
4.445	63.05	97.2244	4.1772	-2.768
4.453	63.13	97.2181	4.1769	-2.725
4.462	63.21	97.2118	4.1767	-2.683
4.470	63.30	97.2055	4.1764	-2.642
4.478	63.38	97.1992	4.1761	-2.600
4.487	63.47	97.1929	4.1759	-2.559
4.495	63.56	97.1867	4.1756	-2.519
4.503	63.64	97.1804	4.1753	-2.478
4.512	63.73	97.1742	4.1751	-2.436
4.520	63.81	97.1679	4.1748	-2.395
4.528	63.89	97.1617	4.1745	-2.353
4.537	63.98	97.1555	4.1743	-2.310
4.545	64.06	97.1493	4.1740	-2.268
4.553	64.15	97.1431	4.1737	-2.227
4.562	64.24	97.1370	4.1735	-2.185
4.570	64.32	97.1309	4.1732	-2.144
4.578	64.40	97.1248	4.1729	-2.103
4.587	64.49	97.1187	4.1727	-2.062
4.595	64.57	97.1127	4.1724	-2.021
4.603	64.66	97.1067	4.1722	-1.980
4.612	64.75	97.1007	4.1719	-1.940
4.620	64.83	97.0947	4.1716	-1.900
4.628	64.92	97.0887	4.1714	-1.860
4.637	65.00	97.0827	4.1711	-1.819
4.645	65.09	97.0768	4.1709	-1.780
4.653	65.17	97.0708	4.1706	-1.740
4.662	65.26	97.0649	4.1704	-1.700
4.670	65.34	97.0590	4.1701	-1.661
4.678	65.43	97.0531	4.1699	-1.623
4.687	65.51	97.0472	4.1696	-1.585
4.695	65.60	97.0414	4.1694	-1.546
4.703	65.68	97.0355	4.1691	-1.507
4.712	65.77	97.0297	4.1689	-1.469
4.720	65.85	97.0239	4.1686	-1.431
4.728	65.94	97.0181	4.1684	-1.393
4.737	66.02	97.0124	4.1681	-1.354
4.745	66.11	97.0066	4.1679	-1.315
4.753	66.19	97.0009	4.1676	-1.275
4.762	66.28	96.9951	4.1674	-1.236
4.770	66.36	96.9894	4.1671	-1.196
4.778	66.45	96.9837	4.1669	-1.158
4.787	66.53	96.9781	4.1666	-1.119
4.795	66.62	96.9724	4.1664	-1.081
4.803	66.70	96.9668	4.1662	-1.042
4.812	66.79	96.9612	4.1659	-1.004
4.820	66.87	96.9557	4.1657	-0.966
4.828	66.96	96.9501	4.1654	-0.928
4.837	67.04	96.9446	4.1652	-0.892
4.845	67.13	96.9391	4.1650	-0.855
4.853	67.22	96.9336	4.1647	-0.817
4.862	67.30	96.9282	4.1645	-0.779
4.870	67.39	96.9227	4.1643	-0.741
4.878	67.47	96.9173	4.1640	-0.703
4.887	67.56	96.9119	4.1638	-0.665
4.895	67.64	96.9065	4.1636	-0.627
4.903	67.73	96.9011	4.1633	-0.588
4.912	67.81	96.8958	4.1631	-0.550
4.920	67.90	96.8904	4.1629	-0.510
4.928	67.98	96.8851	4.1626	-0.473
4.937	68.07	96.8799	4.1624	-0.435
4.945	68.15	96.8746	4.1622	-0.399
4.953	68.24	96.8694	4.1620	-0.361
4.962	68.33	96.8642	4.1617	-0.324
4.970	68.41	96.8590	4.1615	-0.287
4.978	68.50	96.8539	4.1613	-0.252
4.987	68.58	96.8487	4.1611	-0.216
4.995	68.67	96.8436	4.1609	-0.181
5.003	68.75	96.8385	4.1606	-0.145
5.012	68.84	96.8334	4.1604	-0.108
5.020	68.93	96.8284	4.1602	-0.071
5.028	69.01	96.8234	4.1600	-0.035
5.037	69.10	96.8184	4.1598	-0.001
5.045	69.18	96.8134	4.1596	0.033
5.053	69.27	96.8084	4.1593	0.069
5.062	69.35	96.8035	4.1591	0.105
5.070	69.44	96.7986	4.1589	0.140
5.078	69.52	96.7937	4.1587	0.176
5.087	69.61	96.7888	4.1585	0.211
5.095	69.69	96.7839	4.1583	0.245
5.103	69.78	96.7791	4.1581	0.280
5.112	69.87	96.7742	4.1579	0.314
5.120	69.95	96.7694	4.1577	0.349
5.128	70.04	96.7646	4.1575	0.385
5.137	70.12	96.7599	4.1573	0.420
5.145	70.21	96.7552	4.1571	0.456
5.153	70.29	96.7505	4.1569	0.492
5.162	70.38	96.7458	4.1567	0.526
5.170	70.47	96.7411	4.1565	0.559
5.178	70.55	96.7365	4.1563	0.594
5.187	70.64	96.7319	4.1561	0.629
5.195	70.72	96.7273	4.1559	0.665
5.203	70.81	96.7228	4.1557	0.700
5.212	70.90	96.7182	4.1555	0.735
5.220	70.98	96.7137	4.1553	0.770
5.228	71.07	96.7092	4.1551	0.804
5.237	71.15	96.7047	4.1549	0.837
5.245	71.24	96.7002	4.1547	0.873
5.253	71.32	96.6957	4.1545	0.908
5.262	71.41	96.6912	4.1543	0.943
5.270	71.50	96.6868	4.1541	0.976
5.278	71.58	96.6823	4.1539	1.010
5.287	71.67	96.6779	4.1537	1.043
5.295	71.75	96.6735	4.1536	1.076
5.303	71.84	96.6692	4.1534	1.109
5.312	71.93	96.6648	4.1532	1.142
5.320	72.01	96.6605	4.1530	1.176
5.328	72.10	96.6562	4.1528	1.209
5.337	72.18	96.6520	4.1526	1.242
5.345	72.27	96.6477	4.1524	1.276
5.353	72.36	96.6435	4.1523	1.310
5.362	72.44	96.6393	4.1521	1.343
5.370	72.53	96.6351	4.1519	1.375
5.378	72.62	96.6309	4.1517	1.408
5.387	72.70	96.6267	4.1515	1.441
5.395	72.79	96.6226	4.1514	1.474
5.403	72.87	96.6184	4.1512	1.506
5.412	72.96	96.6143	4.1510	1.538
5.420	73.05	96.6102	4.1508	1.570
5.428	73.13	96.6061	4.1507	1.602
5.437	73.22	96.6021	4.1505	1.635
5.445	73.30	96.5980	4.1503	1.667
5.453	73.39	96.5940	4.1501	1.698
5.462	73.48	96.5900	4.1500	1.730
5.470	73.56	96.5860	4.1498	1.762
5.478	73.65	96.5820	4.1496	1.793
5.487	73.73	96.5780	4.1494	1.825
5.495	73.82	96.5741	4.1493	1.857
5.503	73.91	96.5701	4.1491	1.889
5.512	73.99	96.5662	4.1489	1.920
5.520	74.08	96.5624	4.1488	1.951
5.528	74.17	96.5585	4.1486	1.982
5.537	74.25	96.5547	4.1484	2.013
5.545	74.34	96.5509	4.1483	2.044
5.553	74.42	96.5471	4.1481	2.076
5.562	74.51	96.5434	4.1480	2.108
5.570	74.60	96.5396	4.1478	2.138
5.578	74.68	96.5359	4.1476	2.168
5.587	74.77	96.5322	4.1475	2.199
5.595	74.86	96.5285	4.1473	2.230
5.603	74.94	96.5249	4.1472	2.261
5.612	75.03	96.5212	4.1470	2.293
5.620	75.12	96.5176	4.1469	2.325
5.628	75.20	96.5141	4.1467	2.355
5.637	75.29	96.5105	4.1465	2.386
5.645	75.37	96.5070	4.1464	2.417
5.653	75.46	96.5035	4.1462	2.448
5.662	75.55	96.5000	4.1461	2.479
5.670	75.63	96.4965	4.1459	2.510
5.678	75.72	96.4930	4.1458	2.540
5.687	75.81	96.4896	4.1457	2.568
5.695	75.89	96.4862	4.1455	2.597
5.703	75.98	96.4828	4.1454	2.627
5.712	76.07	96.4794	4.1452	2.657
5.720	76.15	96.4760	4.1451	2.686
5.728	76.24	96.4727	4.1449	2.715
5.737	76.33	96.4693	4.1448	2.743
5.745	76.41	96.4660	4.1446	2.773
5.753	76.50	96.4627	4.1445	2.802
5.762	76.59	96.4594	4.1444	2.832
5.770	76.67	96.4561	4.1442	2.861
5.778	76.76	96.4529	4.1441	2.891
5.787	76.85	96.4496	4.1439	2.920
5.795	76.93	96.4464	4.1438	2.949
5.803	77.02	96.4431	4.1437	2.978
5.812	77.10	96.4399	4.1435	3.006
5.820	77.19	96.4368	4.1434	3.035
5.828	77.28	96.4336	4.1432	3.062
5.837	77.36	96.4305	4.1431	3.090
5.845	77.45	96.4273	4.1430	3.117
5.853	77.54	96.4242	4.1428	3.146
5.862	77.62	96.4211	4.1427	3.173
5.870	77.71	96.4181	4.1426	3.201
5.878	77.80	96.4150	4.1424	3.227
5.887	77.88	96.4120	4.1423	3.253
5.895	77.97	96.4090	4.1422	3.279
5.903	78.06	96.4060	4.1421	3.306
5.912	78.14	96.4030	4.1419	3.333
5.920	78.23	96.4001	4.1418	3.360
5.928	78.31	96.3971	4.1417	3.387
5.937	78.40	96.3942	4.1416	3.414
5.945	78.49	96.3914	4.1414	3.440
5.953	78.57	96.3885	4.1413	3.467
5.962	78.66	96.3857	4.1412	3.496
5.970	78.75	96.3829	4.1411	3.524
5.978	78.83	96.3801	4.1409	3.553
5.987	78.92	96.3773	4.1408	3.580
5.995	79.01	96.3745	4.1407	3.608
6.003	79.09	96.3718	4.1406	3.634
6.012	79.18	96.3690	4.1405	3.661
6.020	79.27	96.3663	4.1404	3.687
6.028	79.35	96.3636	4.1402	3.714
6.037	79.44	96.3609	4.1401	3.740
6.045	79.53	96.3582	4.1400	3.765
6.053	79.61	96.3555	4.1399	3.791
6.062	79.70	96.3528	4.1398	3.815
6.070	79.79	96.3502	4.1397	3.840
6.078	79.87	96.3475	4.1395	3.867
6.087	79.96	96.3449	4.1394	3.894
6.095	80.05	96.3423	4.1393	3.920
6.103	80.13	96.3397	4.1392	3.946
6.112	80.22	96.3372	4.1391	3.972
6.120	80.31	96.3346	4.1390	3.997
6.128	80.39	96.3321	4.1389	4.023
6.137	80.48	96.3295	4.1388	4.049
6.145	80.57	96.3270	4.1387	4.075
6.153	80.65	96.3246	4.1386	4.100
6.162	80.74	96.3222	4.1385	4.125
6.170	80.83	96.3197	4.1384	4.148
6.178	80.91	96.3173	4.1382	4.173
6.187	81.00	96.3149	4.1381	4.196
6.195	81.09	96.3125	4.1380	4.220
6.203	81.17	96.3102	4.1379	4.245
6.212	81.26	96.3079	4.1378	4.269
6.220	81.35	96.3056	4.1377	4.293
6.228	81.44	96.3032	4.1376	4.317
6.237	81.52	96.3009	4.1375	4.342
6.245	81.61	96.2986	4.1374	4.364
6.253	81.70	96.2963	4.1373	4.388
6.262	81.78	96.2941	4.1373	4.413
6.270	81.87	96.2918	4.1372	4.437
6.278	81.95	96.2896	4.1371	4.460
6.287	82.04	96.2874	4.1370	4.483
6.295	82.13	96.2852	4.1369	4.507
6.303	82.21	96.2830	4.1368	4.530
6.312	82.30	96.2808	4.1367	4.554
6.320	82.39	96.2787	4.1366	4.577
6.328	82.47	96.2766	4.1365	4.601
6.337	82.56	96.2745	4.1364	4.624
6.345	82.65	96.2724	4.1363	4.648
6.353	82.73	96.2703	4.1362	4.671
6.362	82.82	96.2682	4.1361	4.693
6.370	82.91	96.2662	4.1361	4.716
6.378	82.99	96.2641	4.1360	4.739
6.387	83.08	96.2621	4.1359	4.762
6.395	83.17	96.2601	4.1358	4.784
6.403	83.25	96.2581	4.1357	4.807
6.412	83.34	96.2561	4.1356	4.829
6.420	83.43	96.2541	4.1355	4.851
6.428	83.51	96.2521	4.1354	4.873
6.437	83.60	96.2501	4.1354	4.894
6.445	83.69	96.2481	4.1353	4.916
6.453	83.77	96.2462	4.1352	4.937
6.462	83.86	96.2442	4.1351	4.958
6.470	83.95	96.2422	4.1350	4.978
6.478	84.03	96.2403	4.1349	5.000
6.487	84.12	96.2384	4.1349	5.022
6.495	84.21	96.2365	4.1348	5.044
6.503	84.29	96.2346	4.1347	5.067
6.512	84.38	96.2328	4.1346	5.089
6.520	84.47	96.2310	4.1345	5.111
6.528	84.55	96.2291	4.1345	5.133
6.537	84.64	96.2274	4.1344	5.156
6.545	84.73	96.2256	4.1343	5.178
6.553	84.81	96.2239	4.1342	5.200
6.562	84.90	96.2221	4.1342	5.222
6.570	84.99	96.2204	4.1341	5.242
6.578	85.07	96.2187	4.1340	5.262
6.587	85.16	96.2171	4.1339	5.283
6.595	85.25	96.2154	4.1339	5.304
6.603	85.33	96.2138	4.1338	5.323
6.612	85.42	96.2121	4.1337	5.343
6.620	85.51	96.2105	4.1337	5.364
6.628	85.59	96.2089	4.1336	5.385
6.637	85.68	96.2073	4.1335	5.406
6.645	85.77	96.2056	4.1335	5.426
6.653	85.85	96.2040	4.1334	5.446
6.662	85.94	96.2024	4.1333	5.466
6.670	86.03	96.2008	4.1332	5.485
6.678	86.11	96.1993	4.1332	5.505
6.687	86.20	96.1977	4.1331	5.525
6.695	86.29	96.1961	4.1330	5.544
6.703	86.37	96.1945	4.1330	5.563
6.712	86.46	96.1930	4.1329	5.581
6.720	86.55	96.1915	4.1328	5.600
6.728	86.63	96.1900	4.1328	5.619
6.737	86.72	96.1885	4.1327	5.640
6.745	86.80	96.1870	4.1326	5.660
6.753	86.89	96.1855	4.1326	5.680
6.762	86.98	96.1841	4.1325	5.699
6.770	87.06	96.1827	4.1325	5.717
6.778	87.15	96.1813	4.1324	5.737
6.787	87.24	96.1799	4.1323	5.757
6.795	87.32	96.1785	4.1323	5.776
6.803	87.41	96.1771	4.1322	5.796
6.812	87.50	96.1757	4.1322	5.813
6.820	87.58	96.1744	4.1321	5.831
6.828	87.67	96.1730	4.1320	5.848
6.837	87.76	96.1717	4.1320	5.865
6.845	87.84	96.1704	4.1319	5.883
6.853	87.93	96.1691	4.1319	5.901
6.862	88.02	96.1678	4.1318	5.918
6.870	88.10	96.1665	4.1318	5.936
6.878	88.19	96.1652	4.1317	5.953
6.887	88.28	96.1640	4.1317	5.971
6.895	88.36	96.1627	4.1316	5.988
6.903	88.45	96.1615	4.1316	6.006
6.912	88.54	96.1602	4.1315	6.023
6.920	88.62	96.1590	4.1314	6.041
6.928	88.71	96.1577	4.1314	6.060
6.937	88.79	96.1565	4.1313	6.077
6.945	88.88	96.1553	4.1313	6.094
6.953	88.97	96.1541	4.1312	6.110
6.962	89.05	96.1529	4.1312	6.126
6.970	89.14	96.1518	4.1311	6.143
6.978	89.23	96.1506	4.1311	6.159
6.987	89.31	96.1495	4.1310	6.176
6.995	89.40	96.1483	4.1310	6.193
7.003	89.49	96.1472	4.1309	6.209
7.012	89.57	96.1461	4.1309	6.225
7.020	89.66	96.1450	4.1308	6.242
7.028	89.75	96.1439	4.1308	6.259
7.037	89.83	96.1429	4.1308	6.276
7.045	89.92	96.1418	4.1307	6.293
7.053	90.00	96.1408	4.1307	6.308
7.062	90.09	96.1397	4.1306	6.323
7.070	90.18	96.1387	4.1306	6.338
7.078	90.26	96.1377	4.1305	6.353
7.087	90.35	96.1367	4.1305	6.368
7.095	90.44	96.1357	4.1304	6.383
7.103	90.52	96.1347	4.1304	6.397
7.112	90.61	96.1337	4.1304	6.412
7.120	90.69	96.1327	4.1303	6.426
7.128	90.78	96.1317	4.1303	6.441
7.137	90.87	96.1308	4.1302	6.456
7.145	90.95	96.1298	4.1302	6.472
7.153	91.04	96.1288	4.1302	6.488
7.162	91.13	96.1279	4.1301	6.502
7.170	91.21	96.1269	4.1301	6.517
7.178	91.30	96.1260	4.1300	6.533
7.187	91.39	96.1251	4.1300	6.548
7.195	91.47	96.1242	4.1300	6.562
7.203	91.56	96.1234	4.1299	6.577
7.212	91.64	96.1225	4.1299	6.592
7.220	91.73	96.1216	4.1298	6.606
7.228	91.82	96.1207	4.1298	6.620
7.237	91.90	96.1199	4.1298	6.634
7.245	91.99	96.1190	4.1297	6.649
7.253	92.08	96.1181	4.1297	6.664
7.262	92.16	96.1172	4.1297	6.679
7.270	92.25	96.1164	4.1296	6.693
7.278	92.33	96.1155	4.1296	6.708
7.287	92.42	96.1146	4.1295	6.722
7.295	92.51	96.1138	4.1295	6.737
7.303	92.59	96.1130	4.1295	6.751
7.312	92.68	96.1121	4.1294	6.765
7.320	92.77	96.1113	4.1294	6.778
7.328	92.85	96.1105	4.1294	6.790
7.337	92.94	96.1097	4.1293	6.803
7.345	93.03	96.1089	4.1293	6.815
7.353	93.11	96.1081	4.1293	6.827
7.362	93.20	96.1074	4.1292	6.840
7.370	93.28	96.1066	4.1292	6.852
7.378	93.37	96.1058	4.1292	6.864
7.387	93.46	96.1050	4.1291	6.877
7.395	93.54	96.1043	4.1291	6.890
7.403	93.63	96.1035	4.1291	6.903
7.412	93.72	96.1028	4.1290	6.917
7.420	93.80	96.1021	4.1290	6.929
7.428	93.89	96.1014	4.1290	6.942
7.437	93.97	96.1007	4.1289	6.955
7.445	94.06	96.1000	4.1289	6.967
7.453	94.15	96.0993	4.1289	6.979
7.462	94.23	96.0986	4.1288	6.991
7.470	94.32	96.0979	4.1288	7.002
7.478	94.40	96.0972	4.1288	7.013
7.487	94.49	96.0965	4.1288	7.023
7.495	94.58	96.0958	4.1287	7.032
7.503	94.66	96.0951	4.1287	7.042
7.512	94.75	96.0944	4.1287	7.053
7.520	94.83	96.0938	4.1286	7.064
7.528	94.92	96.0931	4.1286	7.075
7.537	95.01	96.0925	4.1286	7.086
7.545	95.09	96.0919	4.1286	7.097
7.553	95.18	96.0913	4.1285	7.109
7.562	95.26	96.0906	4.1285	7.122
7.570	95.35	96.0900	4.1285	7.134
7.578	95.44	96.0894	4.1285	7.147
7.587	95.52	96.0888	4.1284	7.158
7.595	95.61	96.0882	4.1284	7.168
7.603	95.69	96.0876	4.1284	7.178
7.612	95.78	96.0870	4.1284	7.188
7.620	95.87	96.0864	4.1283	7.198
7.628	95.95	96.0857	4.1283	7.208
7.637	96.04	96.0851	4.1283	7.217
7.645	96.12	96.0845	4.1282	7.226
7.653	96.21	96.0839	4.1282	7.234
7.662	96.30	96.0833	4.1282	7.243
7.670	96.38	96.0828	4.1282	7.253
7.678	96.47	96.0822	4.1281	7.263
7.687	96.56	96.0816	4.1281	7.274
7.695	96.64	96.0811	4.1281	7.284
7.703	96.73	96.0806	4.1281	7.293
7.712	96.81	96.0801	4.1281	7.302
7.720	96.90	96.0796	4.1280	7.311
7.728	96.99	96.0792	4.1280	7.320
7.737	97.07	96.0787	4.1280	7.329
7.745	97.16	96.0783	4.1280	7.337
7.753	97.24	96.0778	4.1280	7.346
7.762	97.33	96.0774	4.1279	7.355
7.770	97.41	96.0770	4.1279	7.363
7.778	97.50	96.0766	4.1279	7.372
7.787	97.59	96.0762	4.1279	7.381
7.795	97.67	96.0757	4.1279	7.389
7.803	97.76	96.0752	4.1278	7.398
7.812	97.84	96.0748	4.1278	7.407
7.820	97.93	96.0743	4.1278	7.416
7.828	98.01	96.0739	4.1278	7.425
7.837	98.10	96.0734	4.1278	7.433
7.845	98.19	96.0729	4.1277	7.441
7.853	98.27	96.0725	4.1277	7.448
7.862	98.36	96.0720	4.1277	7.455
7.870	98.44	96.0716	4.1277	7.463
7.878	98.53	96.0712	4.1277	7.470
7.887	98.62	96.0708	4.1277	7.477
7.895	98.70	96.0703	4.1276	7.485
7.903	98.79	96.0700	4.1276	7.492
7.912	98.87	96.0696	4.1276	7.500
7.920	98.96	96.0692	4.1276	7.507
7.928	99.05	96.0688	4.1276	7.514
7.937	99.13	96.0685	4.1276	7.522
7.945	99.22	96.0681	4.1275	7.530
7.953	99.30	96.0678	4.1275	7.538
7.962	99.39	96.0674	4.1275	7.545
7.970	99.48	96.0671	4.1275	7.553
7.978	99.56	96.0667	4.1275	7.560
7.987	99.65	96.0663	4.1275	7.567
7.995	99.73	96.0660	4.1274	7.574
8.003	99.82	96.0656	4.1274	7.581
8.012	99.90	96.0653	4.1274	7.588
8.020	99.99	96.0649	4.1274	7.595
8.028	100.08	96.0646	4.1274	7.601
8.037	100.16	96.0643	4.1274	7.608
8.045	100.25	96.0640	4.1274	7.614
8.053	100.33	96.0636	4.1273	7.620
8.062	100.42	96.0633	4.1273	7.627
8.070	100.51	96.0630	4.1273	7.634
8.078	100.59	96.0626	4.1273	7.641
8.087	100.68	96.0623	4.1273	7.647
8.095	100.76	96.0620	4.1273	7.653
8.103	100.85	96.0616	4.1273	7.659
8.112	100.93	96.0613	4.1272	7.665
8.120	101.02	96.0609	4.1272	7.670
8.128	101.10	96.0605	4.1272	7.675
8.137	101.19	96.0602	4.1272	7.680
8.145	101.28	96.0598	4.1272	7.686
8.153	101.36	96.0595	4.1272	7.692
8.162	101.45	96.0592	4.1272	7.699
8.170	101.53	96.0588	4.1271	7.705
8.178	101.62	96.0585	4.1271	7.711
8.187	101.71	96.0581	4.1271	7.717
8.195	101.79	96.0578	4.1271	7.723
8.203	101.88	96.0575	4.1271	7.728
8.212	101.96	96.0572	4.1271	7.734
8.220	102.05	96.0569	4.1271	7.738
8.228	102.13	96.0566	4.1270	7.742
8.237	102.22	96.0563	4.1270	7.746
8.245	102.30	96.0560	4.1270	7.750
8.253	102.39	96.0557	4.1270	7.753
8.262	102.48	96.0554	4.1270	7.757
8.270	102.56	96.0551	4.1270	7.762
8.278	102.65	96.0548	4.1270	7.766
8.287	102.73	96.0545	4.1270	7.771
8.295	102.82	96.0542	4.1269	7.776
8.303	102.91	96.0538	4.1269	7.780
8.312	102.99	96.0535	4.1269	7.785
8.320	103.08	96.0532	4.1269	7.790
8.328	103.16	96.0529	4.1269	7.794
8.337	103.25	96.0527	4.1269	7.798
8.345	103.33	96.0524	4.1269	7.802
8.353	103.42	96.0521	4.1269	7.807
8.362	103.51	96.0519	4.1268	7.811
8.370	103.59	96.0517	4.1268	7.816
8.378	103.68	96.0514	4.1268	7.821
8.387	103.76	96.0512	4.1268	7.827
8.395	103.85	96.0510	4.1268	7.832
8.403	103.93	96.0507	4.1268	7.837
8.412	104.02	96.0505	4.1268	7.842
8.420	104.10	96.0503	4.1268	7.847
8.428	104.19	96.0500	4.1268	7.851
8.437	104.28	96.0498	4.1268	7.855
8.445	104.36	96.0495	4.1267	7.859
8.453	104.45	96.0493	4.1267	7.863
8.462	104.53	96.0491	4.1267	7.867
8.470	104.62	96.0489	4.1267	7.871
8.478	104.70	96.0486	4.1267	7.874
8.487	104.79	96.0484	4.1267	7.877
8.495	104.88	96.0482	4.1267	7.880
8.503	104.96	96.0480	4.1267	7.883
8.512	105.05	96.0478	4.1267	7.886
8.520	105.13	96.0476	4.1267	7.890
8.528	105.22	96.0474	4.1267	7.892
8.537	105.30	96.0472	4.1266	7.895
8.545	105.39	96.0469	4.1266	7.898
8.553	105.47	96.0467	4.1266	7.900
8.562	105.56	96.0465	4.1266	7.903
8.570	105.65	96.0462	4.1266	7.906
8.578	105.73	96.0460	4.1266	7.909
8.587	105.82	96.0458	4.1266	7.912
8.595	105.90	96.0456	4.1266	7.915
8.603	105.99	96.0454	4.1266	7.917
8.612	106.08	96.0452	4.1266	7.920
8.620	106.16	96.0450	4.1265	7.922
8.628	106.25	96.0448	4.1265	7.924
8.637	106.33	96.0446	4.1265	7.926
8.645	106.42	96.0444	4.1265	7.928
8.653	106.50	96.0441	4.1265	7.930

[step]
Isothermal 30.0 min
Time	Temperature	Weight	Weight	Heat Flow
min	°C	%	mg	mW
8.662	106.59	96.0439	4.1265	7.931
8.687	106.85	96.0432	4.1265	7.936
8.712	107.10	96.0426	4.1264	7.942
8.737	107.36	96.0418	4.1264	7.949
8.762	107.61	96.0411	4.1264	7.959
8.787	107.87	96.0404	4.1263	7.972
8.812	108.12	96.0397	4.1263	7.988
8.837	108.36	96.0390	4.1263	8.009
8.862	108.61	96.0383	4.1263	8.034
8.887	108.85	96.0376	4.1262	8.064
8.912	109.09	96.0369	4.1262	8.093
8.937	109.32	96.0361	4.1262	8.128
8.962	109.55	96.0353	4.1261	8.169
8.987	109.77	96.0344	4.1261	8.217
9.012	109.99	96.0335	4.1261	8.269
9.037	110.21	96.0326	4.1260	8.322
9.062	110.41	96.0318	4.1260	8.377
9.087	110.61	96.0309	4.1259	8.437
9.112	110.81	96.0301	4.1259	8.499
9.137	111.00	96.0291	4.1259	8.562
9.162	111.18	96.0281	4.1258	8.632
9.187	111.36	96.0271	4.1258	8.707
9.212	111.53	96.0262	4.1257	8.786
9.237	111.69	96.0252	4.1257	8.865
9.262	111.85	96.0241	4.1257	8.942
9.287	112.00	96.0230	4.1256	9.022
9.312	112.15	96.0220	4.1256	9.105
9.337	112.28	96.0209	4.1255	9.187
9.362	112.41	96.0197	4.1255	9.271
9.387	112.54	96.0185	4.1254	9.357
9.412	112.65	96.0174	4.1254	9.446
9.437	112.76	96.0163	4.1253	9.539
9.462	112.86	96.0154	4.1253	9.632
9.487	112.96	96.0145	4.1252	9.725
9.512	113.04	96.0135	4.1252	9.816
9.537	113.12	96.0125	4.1252	9.906
9.562	113.19	96.0114	4.1251	9.999
9.587	113.26	96.0103	4.1251	10.092
9.612	113.32	96.0092	4.1250	10.183
9.637	113.37	96.0081	4.1250	10.271
9.662	113.42	96.0071	4.1249	10.353
9.687	113.46	96.0061	4.1249	10.437
9.712	113.49	96.0049	4.1248	10.522
9.737	113.52	96.0038	4.1248	10.604
9.762	113.55	96.0027	4.1247	10.680
9.787	113.57	96.0017	4.1247	10.752
9.812	113.58	96.0005	4.1246	10.822
9.837	113.59	95.9994	4.1246	10.890
9.862	113.60	95.9982	4.1245	10.954
9.887	113.60	95.9971	4.1245	11.016
9.912	113.60	95.9960	4.1244	11.076
9.937	113.59	95.9950	4.1244	11.135
9.962	113.58	95.9939	4.1244	11.195
9.987	113.56	95.9929	4.1243	11.252
10.012	113.54	95.9917	4.1243	11.304
10.037	113.52	95.9905	4.1242	11.353
10.062	113.49	95.9892	4.1242	11.395
10.087	113.46	95.9880	4.1241	11.436
10.112	113.43	95.9868	4.1240	11.470
10.137	113.40	95.9856	4.1240	11.499
10.162	113.37	95.9844	4.1239	11.524
10.187	113.33	95.9832	4.1239	11.547
10.212	113.30	95.9822	4.1238	11.569
10.237	113.26	95.9812	4.1238	11.587
10.262	113.22	95.9803	4.1238	11.599
10.287	113.18	95.9795	4.1237	11.608
10.312	113.15	95.9788	4.1237	11.615
10.337	113.11	95.9780	4.1237	11.620
10.362	113.07	95.9773	4.1236	11.624
10.387	113.03	95.9765	4.1236	11.627
10.412	112.99	95.9758	4.1236	11.629
10.437	112.95	95.9751	4.1235	11.631
10.462	112.91	95.9744	4.1235	11.631
10.487	112.87	95.9737	4.1235	11.630
10.512	112.83	95.9730	4.1235	11.627
10.537	112.79	95.9724	4.1234	11.623
10.562	112.75	95.9719	4.1234	11.615
10.587	112.71	95.9714	4.1234	11.606
10.612	112.67	95.9710	4.1234	11.594
10.637	112.63	95.9705	4.1233	11.580
10.662	112.59	95.9701	4.1233	11.565
10.687	112.56	95.9696	4.1233	11.549
10.712	112.52	95.9692	4.1233	11.533
10.737	112.49	95.9688	4.1233	11.513
10.762	112.45	95.9683	4.1233	11.489
10.787	112.42	95.9679	4.1232	11.464
10.812	112.39	95.9674	4.1232	11.441
10.837	112.36	95.9670	4.1232	11.422
10.862	112.33	95.9665	4.1232	11.404
10.887	112.30	95.9661	4.1232	11.383
10.912	112.27	95.9658	4.1231	11.359
10.937	112.24	95.9655	4.1231	11.337
10.962	112.22	95.9651	4.1231	11.313
10.987	112.19	95.9647	4.1231	11.289
11.012	112.17	95.9642	4.1231	11.264
11.037	112.15	95.9638	4.1231	11.239
11.062	112.13	95.9634	4.1230	11.215
11.087	112.11	95.9631	4.1230	11.191
11.112	112.09	95.9628	4.1230	11.169
11.137	112.07	95.9625	4.1230	11.148
11.162	112.05	95.9623	4.1230	11.127
11.187	112.04	95.9620	4.1230	11.107
11.212	112.03	95.9617	4.1230	11.087
11.237	112.01	95.9615	4.1230	11.065
11.262	112.00	95.9612	4.1230	11.042
11.287	111.99	95.9611	4.1229	11.018
11.312	111.99	95.9609	4.1229	10.995
11.337	111.98	95.9608	4.1229	10.975
11.362	111.97	95.9605	4.1229	10.955
11.387	111.97	95.9603	4.1229	10.935
11.412	111.96	95.9601	4.1229	10.917
11.437	111.96	95.9599	4.1229	10.898
11.462	111.96	95.9598	4.1229	10.879
11.487	111.96	95.9597	4.1229	10.859
11.512	111.96	95.9595	4.1229	10.838
[...]
158.378	949.88	-0.7067	-0.0304	105.788
158.387	949.88	-0.7068	-0.0304	105.795
158.395	949.88	-0.7068	-0.0304	105.802
158.403	949.88	-0.7069	-0.0304	105.807
158.412	949.88	-0.7069	-0.0304	105.813
158.420	949.88	-0.7070	-0.0304	105.819
158.428	949.88	-0.7070	-0.0304	105.826
158.437	949.88	-0.7071	-0.0304	105.833
158.445	949.88	-0.7072	-0.0304	105.841
158.453	949.88	-0.7073	-0.0304	105.848
158.462	949.88	-0.7073	-0.0304	105.856
158.470	949.88	-0.7074	-0.0304	105.864
158.478	949.88	-0.7074	-0.0304	105.872
158.487	949.88	-0.7075	-0.0304	105.879
158.495	949.88	-0.7075	-0.0304	105.886
158.503	949.88	-0.7076	-0.0304	105.892
158.512	949.89	-0.7076	-0.0304	105.898
158.520	949.89	-0.7077	-0.0304	105.904
158.528	949.89	-0.7077	-0.0304	105.910
158.537	949.89	-0.7078	-0.0304	105.916
158.545	949.89	-0.7078	-0.0304	105.923
158.553	949.89	-0.7079	-0.0304	105.929
158.562	949.89	-0.7080	-0.0304	105.937
158.570	949.89	-0.7080	-0.0304	105.944
158.578	949.89	-0.7081	-0.0304	105.951
158.587	949.89	-0.7082	-0.0304	105.959
158.595	949.89	-0.7083	-0.0304	105.966
158.603	949.89	-0.7084	-0.0304	105.973
158.612	949.89	-0.7084	-0.0304	105.980
158.620	949.89	-0.7085	-0.0304	105.987
158.628	949.89	-0.7086	-0.0304	105.994
158.637	949.89	-0.7086	-0.0304	106.002
158.645	949.89	-0.7087	-0.0304	106.009
158.653	949.89	-0.7087	-0.0305	106.016
158.662	949.89	-0.7088	-0.0305	106.023
158.670	949.89	-0.7088	-0.0305	106.031
158.678	949.89	-0.7089	-0.0305	106.039
158.687	949.89	-0.7089	-0.0305	106.046
158.695	949.90	-0.7089	-0.0305	106.054
158.703	949.90	-0.7090	-0.0305	106.061
158.712	949.90	-0.7091	-0.0305	106.067
158.720	949.90	-0.7091	-0.0305	106.073
158.728	949.90	-0.7092	-0.0305	106.078
158.737	949.90	-0.7092	-0.0305	106.083
158.745	949.90	-0.7093	-0.0305	106.088
158.753	949.90	-0.7093	-0.0305	106.092
158.762	949.90	-0.7094	-0.0305	106.097
158.770	949.90	-0.7094	-0.0305	106.102
158.778	949.90	-0.7095	-0.0305	106.107
158.787	949.90	-0.7095	-0.0305	106.111
158.795	949.90	-0.7095	-0.0305	106.115
158.803	949.90	-0.7096	-0.0305	106.120
158.812	949.90	-0.7096	-0.0305	106.125
158.820	949.90	-0.7097	-0.0305	106.130
158.828	949.90	-0.7097	-0.0305	106.135
158.837	949.90	-0.7098	-0.0305	106.140
158.845	949.90	-0.7098	-0.0305	106.146
158.853	949.90	-0.7099	-0.0305	106.151
158.862	949.90	-0.7099	-0.0305	106.158
158.870	949.90	-0.7100	-0.0305	106.165
158.878	949.90	-0.7100	-0.0305	106.173
158.887	949.90	-0.7100	-0.0305	106.180
158.895	949.90	-0.7101	-0.0305	106.187
158.903	949.90	-0.7101	-0.0305	106.194
158.912	949.90	-0.7101	-0.0305	106.202
158.920	949.90	-0.7102	-0.0305	106.210
158.928	949.91	-0.7102	-0.0305	106.218
158.937	949.91	-0.7103	-0.0305	106.225
158.945	949.91	-0.7103	-0.0305	106.232
158.953	949.91	-0.7104	-0.0305	106.237
158.962	949.91	-0.7105	-0.0305	106.242
158.970	949.91	-0.7105	-0.0305	106.247
158.978	949.91	-0.7106	-0.0305	106.252
158.987	949.91	-0.7107	-0.0305	106.257
158.995	949.91	-0.7107	-0.0305	106.261
159.003	949.91	-0.7108	-0.0305	106.264
159.012	949.91	-0.7108	-0.0305	106.268
159.020	949.91	-0.7109	-0.0305	106.271
159.028	949.91	-0.7109	-0.0305	106.274
159.037	949.91	-0.7109	-0.0305	106.278
159.045	949.91	-0.7110	-0.0305	106.281
159.053	949.91	-0.7110	-0.0305	106.285
159.062	949.91	-0.7111	-0.0306	106.288
159.070	949.91	-0.7111	-0.0306	106.292
159.078	949.91	-0.7111	-0.0306	106.295
159.087	949.91	-0.7112	-0.0306	106.300
159.095	949.91	-0.7112	-0.0306	106.304
159.103	949.91	-0.7112	-0.0306	106.308
159.112	949.91	-0.7113	-0.0306	106.313
159.120	949.91	-0.7113	-0.0306	106.317
159.128	949.91	-0.7113	-0.0306	106.322
159.137	949.91	-0.7113	-0.0306	106.327
159.145	949.91	-0.7114	-0.0306	106.332
159.153	949.91	-0.7114	-0.0306	106.337
159.162	949.91	-0.7114	-0.0306	106.342
159.170	949.92	-0.7114	-0.0306	106.348
159.178	949.92	-0.7114	-0.0306	106.354
159.187	949.92	-0.7114	-0.0306	106.360
159.195	949.92	-0.7114	-0.0306	106.366
159.203	949.92	-0.7114	-0.0306	106.373
159.212	949.92	-0.7114	-0.0306	106.379
159.220	949.92	-0.7114	-0.0306	106.385
159.228	949.92	-0.7114	-0.0306	106.391
159.237	949.92	-0.7114	-0.0306	106.396
159.245	949.92	-0.7114	-0.0306	106.401
159.253	949.92	-0.7114	-0.0306	106.406
159.262	949.92	-0.7114	-0.0306	106.410
159.270	949.92	-0.7115	-0.0306	106.414
159.278	949.92	-0.7115	-0.0306	106.418
159.287	949.92	-0.7115	-0.0306	106.422
159.295	949.92	-0.7115	-0.0306	106.425
159.303	949.92	-0.7115	-0.0306	106.429
159.312	949.92	-0.7116	-0.0306	106.434
159.320	949.92	-0.7116	-0.0306	106.438
159.328	949.92	-0.7116	-0.0306	106.442
159.337	949.92	-0.7116	-0.0306	106.446
159.345	949.92	-0.7117	-0.0306	106.450
159.353	949.92	-0.7117	-0.0306	106.454
159.362	949.92	-0.7118	-0.0306	106.458
159.370	949.92	-0.7118	-0.0306	106.461
159.378	949.92	-0.7119	-0.0306	106.465
159.387	949.92	-0.7120	-0.0306	106.469
159.395	949.92	-0.7121	-0.0306	106.472
159.403	949.92	-0.7122	-0.0306	106.476
159.412	949.92	-0.7123	-0.0306	106.481
159.420	949.92	-0.7123	-0.0306	106.485
159.428	949.92	-0.7124	-0.0306	106.490
159.437	949.92	-0.7124	-0.0306	106.495
159.445	949.93	-0.7125	-0.0306	106.499
159.453	949.93	-0.7125	-0.0306	106.504
159.462	949.93	-0.7125	-0.0306	106.508
159.470	949.93	-0.7126	-0.0306	106.513
159.478	949.93	-0.7126	-0.0306	106.517
159.487	949.93	-0.7126	-0.0306	106.522
159.495	949.93	-0.7127	-0.0306	106.527
159.503	949.93	-0.7127	-0.0306	106.532
159.512	949.93	-0.7128	-0.0306	106.537
159.520	949.93	-0.7129	-0.0306	106.543
159.528	949.93	-0.7129	-0.0306	106.549
159.537	949.93	-0.7130	-0.0306	106.555
159.545	949.93	-0.7130	-0.0306	106.562
159.553	949.93	-0.7131	-0.0306	106.568
159.562	949.93	-0.7131	-0.0306	106.574
159.570	949.93	-0.7131	-0.0306	106.579
159.578	949.93	-0.7131	-0.0306	106.585
159.587	949.93	-0.7132	-0.0306	106.590
159.595	949.93	-0.7132	-0.0306	106.596
159.603	949.93	-0.7132	-0.0306	106.601
159.612	949.93	-0.7132	-0.0306	106.607
159.620	949.93	-0.7132	-0.0306	106.613
159.628	949.93	-0.7133	-0.0306	106.619
159.637	949.93	-0.7133	-0.0306	106.625
159.645	949.93	-0.7134	-0.0306	106.632
159.653	949.93	-0.7134	-0.0307	106.638
159.662	949.93	-0.7134	-0.0307	106.645
159.670	949.93	-0.7135	-0.0307	106.652
159.678	949.93	-0.7136	-0.0307	106.658
159.687	949.93	-0.7136	-0.0307	106.665
159.695	949.93	-0.7137	-0.0307	106.671
159.703	949.93	-0.7137	-0.0307	106.677
159.712	949.93	-0.7138	-0.0307	106.683
159.720	949.93	-0.7138	-0.0307	106.688
159.728	949.93	-0.7139	-0.0307	106.695
159.737	949.93	-0.7139	-0.0307	106.701
159.745	949.93	-0.7140	-0.0307	106.706
159.753	949.93	-0.7141	-0.0307	106.712
159.762	949.93	-0.7141	-0.0307	106.717
159.770	949.93	-0.7142	-0.0307	106.721
159.778	949.93	-0.7143	-0.0307	106.725
159.787	949.93	-0.7143	-0.0307	106.728
159.795	949.93	-0.7144	-0.0307	106.731
159.803	949.93	-0.7145	-0.0307	106.734
159.812	949.94	-0.7146	-0.0307	106.736
159.820	949.94	-0.7147	-0.0307	106.738
159.828	949.94	-0.7147	-0.0307	106.740
159.837	949.94	-0.7148	-0.0307	106.742
159.845	949.94	-0.7149	-0.0307	106.744
159.853	949.94	-0.7149	-0.0307	106.746
159.862	949.94	-0.7150	-0.0307	106.748
159.870	949.94	-0.7150	-0.0307	106.750
159.878	949.94	-0.7151	-0.0307	106.754
159.887	949.94	-0.7152	-0.0307	106.757
159.895	949.94	-0.7152	-0.0307	106.761
159.903	949.94	-0.7153	-0.0307	106.765
159.912	949.94	-0.7153	-0.0307	106.769
159.920	949.94	-0.7153	-0.0307	106.772
159.928	949.94	-0.7154	-0.0307	106.775
159.937	949.94	-0.7154	-0.0307	106.779
159.945	949.94	-0.7154	-0.0307	106.782
159.953	949.94	-0.7155	-0.0307	106.785
159.962	949.94	-0.7155	-0.0307	106.787
159.970	949.94	-0.7155	-0.0307	106.789
159.978	949.94	-0.7155	-0.0307	106.791
159.987	949.94	-0.7155	-0.0307	106.792
159.995	949.94	-0.7156	-0.0307	106.794
160.003	949.94	-0.7156	-0.0307	106.796
160.012	949.94	-0.7156	-0.0307	106.798
160.020	949.94	-0.7157	-0.0307	106.799
160.028	949.94	-0.7157	-0.0307	106.801
160.037	949.94	-0.7157	-0.0308	106.802
160.045	949.94	-0.7158	-0.0308	106.804
160.053	949.94	-0.7158	-0.0308	106.805
160.062	949.94	-0.7158	-0.0308	106.806
160.070	949.95	-0.7159	-0.0308	106.808
160.078	949.95	-0.7159	-0.0308	106.810
160.087	949.95	-0.7159	-0.0308	106.812
160.095	949.95	-0.7160	-0.0308	106.814
160.103	949.95	-0.7160	-0.0308	106.815
160.112	949.95	-0.7160	-0.0308	106.817
160.120	949.95	-0.7160	-0.0308	106.820
160.128	949.95	-0.7161	-0.0308	106.822
160.137	949.95	-0.7161	-0.0308	106.824
160.145	949.95	-0.7161	-0.0308	106.827
160.153	949.95	-0.7162	-0.0308	106.829
160.162	949.95	-0.7162	-0.0308	106.831
160.170	949.95	-0.7163	-0.0308	106.833
160.178	949.95	-0.7163	-0.0308	106.836
160.187	949.95	-0.7164	-0.0308	106.838
160.195	949.95	-0.7164	-0.0308	106.841
160.203	949.95	-0.7165	-0.0308	106.844
160.212	949.95	-0.7165	-0.0308	106.847
160.220	949.95	-0.7166	-0.0308	106.850
160.228	949.95	-0.7167	-0.0308	106.854
160.237	949.95	-0.7167	-0.0308	106.858
160.245	949.95	-0.7168	-0.0308	106.862
160.253	949.95	-0.7168	-0.0308	106.865
160.262	949.95	-0.7169	-0.0308	106.869
160.270	949.95	-0.7169	-0.0308	106.872
160.278	949.95	-0.7170	-0.0308	106.876
160.287	949.95	-0.7171	-0.0308	106.879
160.295	949.95	-0.7171	-0.0308	106.883
160.303	949.95	-0.7172	-0.0308	106.886
160.312	949.95	-0.7172	-0.0308	106.889
160.320	949.95	-0.7173	-0.0308	106.891
160.328	949.95	-0.7174	-0.0308	106.894
160.337	949.95	-0.7174	-0.0308	106.897
160.345	949.95	-0.7175	-0.0308	106.900
160.353	949.95	-0.7175	-0.0308	106.902
160.362	949.95	-0.7176	-0.0308	106.905
160.370	949.95	-0.7176	-0.0308	106.907
160.378	949.95	-0.7177	-0.0308	106.910
160.387	949.95	-0.7177	-0.0308	106.913
160.395	949.95	-0.7178	-0.0308	106.916
160.403	949.95	-0.7178	-0.0308	106.920
160.412	949.95	-0.7179	-0.0308	106.924
160.420	949.95	-0.7179	-0.0308	106.928
160.428	949.95	-0.7180	-0.0308	106.932
160.437	949.95	-0.7180	-0.0309	106.935
160.445	949.95	-0.7181	-0.0309	106.939
160.453	949.95	-0.7182	-0.0309	106.943
160.462	949.95	-0.7182	-0.0309	106.946
160.470	949.95	-0.7183	-0.0309	106.950
160.478	949.95	-0.7183	-0.0309	106.952
160.487	949.95	-0.7184	-0.0309	106.955
160.495	949.95	-0.7185	-0.0309	106.958
160.503	949.95	-0.7185	-0.0309	106.962
160.512	949.95	-0.7186	-0.0309	106.965
160.520	949.95	-0.7187	-0.0309	106.968
160.528	949.95	-0.7187	-0.0309	106.972
160.537	949.95	-0.7188	-0.0309	106.975
160.545	949.95	-0.7188	-0.0309	106.979
160.553	949.95	-0.7189	-0.0309	106.982
160.562	949.96	-0.7189	-0.0309	106.985
160.570	949.96	-0.7190	-0.0309	106.987
160.578	949.96	-0.7190	-0.0309	106.990
160.587	949.96	-0.7190	-0.0309	106.993
160.595	949.96	-0.7191	-0.0309	106.996
160.603	949.96	-0.7191	-0.0309	106.999
160.612	949.96	-0.7191	-0.0309	107.003
160.620	949.96	-0.7192	-0.0309	107.006
160.628	949.96	-0.7192	-0.0309	107.010
160.637	949.96	-0.7193	-0.0309	107.013
160.645	949.96	-0.7193	-0.0309	107.017
160.653	949.96	-0.7194	-0.0309	107.021
160.662	949.96	-0.7195	-0.0309	107.025
160.670	949.96	-0.7195	-0.0309	107.029
160.678	949.96	-0.7195	-0.0309	107.033
160.687	949.96	-0.7196	-0.0309	107.038
160.695	949.96	-0.7196	-0.0309	107.042
160.703	949.96	-0.7197	-0.0309	107.047
160.712	949.96	-0.7197	-0.0309	107.051
160.720	949.96	-0.7198	-0.0309	107.056
160.728	949.96	-0.7198	-0.0309	107.061
160.737	949.96	-0.7199	-0.0309	107.066
160.745	949.96	-0.7199	-0.0309	107.072
160.753	949.96	-0.7200	-0.0309	107.076
160.762	949.96	-0.7200	-0.0309	107.081
160.770	949.96	-0.7201	-0.0309	107.084
160.778	949.96	-0.7202	-0.0309	107.088
160.787	949.96	-0.7202	-0.0309	107.091
160.795	949.96	-0.7203	-0.0309	107.095
160.803	949.96	-0.7203	-0.0309	107.098
160.812	949.96	-0.7204	-0.0310	107.100
160.820	949.96	-0.7205	-0.0310	107.103
160.828	949.96	-0.7205	-0.0310	107.105
160.837	949.96	-0.7206	-0.0310	107.108
160.845	949.96	-0.7207	-0.0310	107.111
160.853	949.96	-0.7207	-0.0310	107.113
160.862	949.96	-0.7208	-0.0310	107.116
160.870	949.96	-0.7208	-0.0310	107.119
160.878	949.96	-0.7209	-0.0310	107.122
160.887	949.96	-0.7210	-0.0310	107.125
160.895	949.96	-0.7211	-0.0310	107.128
160.903	949.96	-0.7211	-0.0310	107.131
160.912	949.96	-0.7212	-0.0310	107.134
160.920	949.96	-0.7213	-0.0310	107.137
160.928	949.96	-0.7214	-0.0310	107.140
160.937	949.96	-0.7215	-0.0310	107.143
160.945	949.96	-0.7215	-0.0310	107.146
160.953	949.96	-0.7216	-0.0310	107.149
160.962	949.96	-0.7217	-0.0310	107.152
160.970	949.96	-0.7218	-0.0310	107.156
160.978	949.96	-0.7219	-0.0310	107.159
160.987	949.96	-0.7220	-0.0310	107.163
160.995	949.96	-0.7220	-0.0310	107.166
161.003	949.96	-0.7221	-0.0310	107.169
161.012	949.96	-0.7221	-0.0310	107.173
161.020	949.96	-0.7222	-0.0310	107.177
161.028	949.96	-0.7223	-0.0310	107.181
161.037	949.96	-0.7223	-0.0310	107.185
161.045	949.96	-0.7224	-0.0310	107.188
161.053	949.96	-0.7224	-0.0310	107.192
161.062	949.96	-0.7224	-0.0310	107.195
161.070	949.96	-0.7225	-0.0310	107.199
161.078	949.96	-0.7225	-0.0310	107.202
161.087	949.96	-0.7225	-0.0310	107.205
161.095	949.96	-0.7226	-0.0310	107.208
161.103	949.96	-0.7226	-0.0310	107.210
161.112	949.96	-0.7226	-0.0310	107.213
161.120	949.96	-0.7226	-0.0310	107.215
161.128	949.96	-0.7226	-0.0310	107.218
161.137	949.96	-0.7226	-0.0310	107.220
161.145	949.96	-0.7226	-0.0310	107.222
161.153	949.96	-0.7226	-0.0310	107.225
161.162	949.96	-0.7227	-0.0310	107.228
161.170	949.96	-0.7227	-0.0311	107.230
161.178	949.96	-0.7227	-0.0311	107.233
161.187	949.96	-0.7227	-0.0311	107.235
161.195	949.96	-0.7228	-0.0311	107.238
161.203	949.96	-0.7228	-0.0311	107.240
161.212	949.97	-0.7229	-0.0311	107.243
161.220	949.97	-0.7230	-0.0311	107.246
161.228	949.97	-0.7231	-0.0311	107.249
161.237	949.97	-0.7233	-0.0311	107.252
161.245	949.97	-0.7235	-0.0311	107.255
161.253	949.97	-0.7237	-0.0311	107.257
161.262	949.97	-0.7239	-0.0311	107.260
161.270	949.97	-0.7241	-0.0311	107.262
161.278	949.97	-0.7244	-0.0311	107.264
161.287	949.97	-0.7246	-0.0311	107.266
161.295	949.97	-0.7249	-0.0311	107.267
161.303	949.97	-0.7251	-0.0312	107.268
161.312	949.97	-0.7254	-0.0312	107.269
161.320	949.97	-0.7256	-0.0312	107.270
161.328	949.97	-0.7259	-0.0312	107.271
161.337	949.97	-0.7261	-0.0312	107.272
161.345	949.97	-0.7263	-0.0312	107.272
161.353	949.97	-0.7265	-0.0312	107.273
161.362	949.97	-0.7267	-0.0312	107.274
161.370	949.97	-0.7269	-0.0312	107.274
161.378	949.97	-0.7271	-0.0312	107.275
161.387	949.97	-0.7273	-0.0312	107.276
161.395	949.97	-0.7275	-0.0313	107.277
161.403	949.97	-0.7277	-0.0313	107.277
161.412	949.97	-0.7278	-0.0313	107.279
161.420	949.97	-0.7280	-0.0313	107.280
161.428	949.97	-0.7281	-0.0313	107.282
161.437	949.97	-0.7283	-0.0313	107.283
161.445	949.97	-0.7285	-0.0313	107.285
161.453	949.97	-0.7286	-0.0313	107.287
161.462	949.97	-0.7287	-0.0313	107.288
161.470	949.97	-0.7289	-0.0313	107.290
161.478	949.97	-0.7290	-0.0313	107.292
161.487	949.97	-0.7291	-0.0313	107.295
161.495	949.97	-0.7293	-0.0313	107.297
161.503	949.97	-0.7294	-0.0313	107.299
161.512	949.97	-0.7295	-0.0313	107.301
161.520	949.97	-0.7296	-0.0313	107.304
161.528	949.97	-0.7297	-0.0313	107.306
161.537	949.97	-0.7298	-0.0314	107.308
161.545	949.97	-0.7298	-0.0314	107.311
161.553	949.97	-0.7299	-0.0314	107.314
161.562	949.97	-0.7300	-0.0314	107.316
161.570	949.97	-0.7301	-0.0314	107.318
161.578	949.97	-0.7301	-0.0314	107.320
161.587	949.97	-0.7302	-0.0314	107.323
161.595	949.97	-0.7303	-0.0314	107.326
161.603	949.97	-0.7303	-0.0314	107.329
161.612	949.97	-0.7304	-0.0314	107.331
161.620	949.97	-0.7304	-0.0314	107.334
161.628	949.97	-0.7305	-0.0314	107.336
161.637	949.97	-0.7306	-0.0314	107.339
161.645	949.97	-0.7306	-0.0314	107.342
161.653	949.97	-0.7307	-0.0314	107.344
161.662	949.97	-0.7308	-0.0314	107.346
161.670	949.97	-0.7309	-0.0314	107.348
161.678	949.97	-0.7309	-0.0314	107.351
161.687	949.97	-0.7310	-0.0314	107.353
161.695	949.97	-0.7311	-0.0314	107.356
161.703	949.97	-0.7312	-0.0314	107.358
161.712	949.97	-0.7312	-0.0314	107.361
161.720	949.98	-0.7313	-0.0314	107.364
161.728	949.97	-0.7314	-0.0314	107.367
161.737	949.97	-0.7315	-0.0314	107.370
161.745	949.97	-0.7315	-0.0314	107.374
161.753	949.97	-0.7316	-0.0314	107.377
161.762	949.97	-0.7316	-0.0314	107.380
161.770	949.98	-0.7317	-0.0314	107.383
161.778	949.97	-0.7318	-0.0314	107.387
161.787	949.97	-0.7318	-0.0314	107.390
161.795	949.97	-0.7319	-0.0314	107.393
161.803	949.98	-0.7319	-0.0314	107.397
161.812	949.98	-0.7320	-0.0314	107.400
161.820	949.98	-0.7320	-0.0315	107.403
161.828	949.98	-0.7321	-0.0315	107.407
161.837	949.98	-0.7321	-0.0315	107.410
161.845	949.98	-0.7321	-0.0315	107.413
161.853	949.98	-0.7322	-0.0315	107.417
161.862	949.98	-0.7322	-0.0315	107.421
161.870	949.98	-0.7322	-0.0315	107.425
161.878	949.98	-0.7322	-0.0315	107.428
161.887	949.98	-0.7323	-0.0315	107.432
161.895	949.98	-0.7323	-0.0315	107.436
161.903	949.98	-0.7324	-0.0315	107.440
161.912	949.98	-0.7324	-0.0315	107.443
161.920	949.98	-0.7325	-0.0315	107.447
161.928	949.98	-0.7326	-0.0315	107.451
161.937	949.98	-0.7326	-0.0315	107.454
161.945	949.98	-0.7327	-0.0315	107.457
161.953	949.98	-0.7328	-0.0315	107.460
161.962	949.98	-0.7329	-0.0315	107.463
161.970	949.98	-0.7329	-0.0315	107.466
161.978	949.98	-0.7330	-0.0315	107.470
161.987	949.98	-0.7331	-0.0315	107.474
161.995	949.98	-0.7332	-0.0315	107.478
162.003	949.98	-0.7332	-0.0315	107.482
162.012	949.98	-0.7333	-0.0315	107.487
162.020	949.98	-0.7334	-0.0315	107.491
162.028	949.98	-0.7334	-0.0315	107.495
162.037	949.98	-0.7335	-0.0315	107.499
162.045	949.98	-0.7335	-0.0315	107.504
162.053	949.98	-0.7336	-0.0315	107.507
162.062	949.98	-0.7336	-0.0315	107.511
162.070	949.98	-0.7337	-0.0315	107.514
162.078	949.98	-0.7338	-0.0315	107.517
162.087	949.98	-0.7338	-0.0315	107.519
162.095	949.98	-0.7339	-0.0315	107.522
162.103	949.98	-0.7340	-0.0315	107.524
162.112	949.98	-0.7340	-0.0315	107.526
162.120	949.98	-0.7341	-0.0315	107.528
162.128	949.98	-0.7342	-0.0315	107.531
162.137	949.98	-0.7343	-0.0315	107.533
162.145	949.98	-0.7344	-0.0316	107.535
162.153	949.98	-0.7345	-0.0316	107.537
162.162	949.98	-0.7345	-0.0316	107.539
162.170	949.98	-0.7346	-0.0316	107.541
162.178	949.98	-0.7347	-0.0316	107.543
162.187	949.98	-0.7348	-0.0316	107.545
162.195	949.98	-0.7348	-0.0316	107.547
162.203	949.98	-0.7349	-0.0316	107.549
162.212	949.98	-0.7350	-0.0316	107.551
162.220	949.98	-0.7350	-0.0316	107.553
162.228	949.98	-0.7350	-0.0316	107.555
162.237	949.98	-0.7351	-0.0316	107.557
162.245	949.98	-0.7351	-0.0316	107.559
162.253	949.98	-0.7351	-0.0316	107.561
162.262	949.98	-0.7351	-0.0316	107.563
162.270	949.98	-0.7351	-0.0316	107.565
162.278	949.98	-0.7351	-0.0316	107.567
162.287	949.98	-0.7352	-0.0316	107.570
162.295	949.98	-0.7352	-0.0316	107.572
162.303	949.98	-0.7352	-0.0316	107.574
162.312	949.98	-0.7353	-0.0316	107.577
162.320	949.98	-0.7353	-0.0316	107.579
162.328	949.98	-0.7353	-0.0316	107.581
162.337	949.98	-0.7353	-0.0316	107.583
162.345	949.98	-0.7353	-0.0316	107.585
162.353	949.98	-0.7353	-0.0316	107.586
162.362	949.98	-0.7353	-0.0316	107.587
162.370	949.98	-0.7353	-0.0316	107.588
162.378	949.98	-0.7354	-0.0316	107.590
162.387	949.98	-0.7354	-0.0316	107.591
162.395	949.98	-0.7354	-0.0316	107.592
162.403	949.98	-0.7355	-0.0316	107.593
162.412	949.98	-0.7355	-0.0316	107.594
162.420	949.98	-0.7356	-0.0316	107.595
162.428	949.98	-0.7357	-0.0316	107.596
162.437	949.98	-0.7357	-0.0316	107.597
162.445	949.98	-0.7358	-0.0316	107.599
162.453	949.98	-0.7359	-0.0316	107.600
162.462	949.98	-0.7360	-0.0316	107.601
162.470	949.98	-0.7361	-0.0316	107.602
162.478	949.98	-0.7361	-0.0316	107.603
162.487	949.98	-0.7362	-0.0316	107.604
162.495	949.98	-0.7363	-0.0316	107.605
162.503	949.98	-0.7363	-0.0316	107.606
162.512	949.98	-0.7364	-0.0316	107.607
162.520	949.98	-0.7364	-0.0316	107.608
162.528	949.98	-0.7364	-0.0316	107.610
162.537	949.99	-0.7365	-0.0316	107.611
162.545	949.99	-0.7365	-0.0316	107.612
162.553	949.99	-0.7365	-0.0316	107.613
162.562	949.99	-0.7366	-0.0316	107.615
162.570	949.99	-0.7366	-0.0316	107.616
162.578	949.99	-0.7367	-0.0317	107.618
162.587	949.99	-0.7367	-0.0317	107.620
162.595	949.99	-0.7368	-0.0317	107.623
162.603	949.99	-0.7368	-0.0317	107.625
162.612	949.99	-0.7368	-0.0317	107.628
162.620		-0.7369	-0.0317
162.628		-0.7369	-0.0317
162.637		-0.7370	-0.0317
162.645		-0.7370	-0.0317
162.653		-0.7371	-0.0317