File: PSO Kinetics/data/softwood-5Kmin_3.txt
Filename	softwood-5Kmin_3
Instrument name	0650-0369 (192.168.1.2)
Operator	ca527
rundate	1/10/2023
Sample name	softwood-5Kmin_3
proceduresegments	Select Gas: Gas 1 ; Ramp 10.00 °C/min to 110.00 °C; Isothermal 30.0 min; Ramp 5.00 °C/min to 900.00 °C; Isothermal 30.0 min; Select Gas: Gas 2 ; Ramp 10.00 °C/min to 950.00 °C; Isothermal 10.0 min; Data Off ; Equilibrate 30.00 °C
[step]
Ramp 10.00 °C/min to 110.00 °C
Time	Temperature	Weight	Weight	Heat Flow
min	°C	%	mg	mW
0.003		99.9950	3.3248
0.012		99.9920	3.3247
0.020		99.9906	3.3247
0.028		99.9909	3.3247
0.037		99.9925	3.3248
0.045	22.03	99.9962	3.3249	-26.034
0.053	22.07	100.0026	3.3251	-26.000
0.062	22.11	100.0098	3.3253	-25.971
0.070	22.15	100.0158	3.3255	-25.946
0.078	22.19	100.0189	3.3256	-25.922
0.087	22.23	100.0182	3.3256	-25.900
0.095	22.26	100.0157	3.3255	-25.879
0.103	22.30	100.0125	3.3254	-25.858
0.112	22.34	100.0089	3.3253	-25.839
0.120	22.38	100.0051	3.3252	-25.819
0.128	22.42	100.0013	3.3251	-25.799
0.137	22.45	99.9973	3.3249	-25.779
0.145	22.49	99.9934	3.3248	-25.760
0.153	22.53	99.9893	3.3247	-25.742
0.162	22.56	99.9852	3.3245	-25.726
0.170	22.60	99.9811	3.3244	-25.709
0.178	22.64	99.9769	3.3242	-25.692
0.187	22.68	99.9726	3.3241	-25.675
0.195	22.71	99.9683	3.3240	-25.658
0.203	22.75	99.9640	3.3238	-25.643
0.212	22.78	99.9596	3.3237	-25.627
0.220	22.82	99.9551	3.3235	-25.610
0.228	22.86	99.9506	3.3234	-25.594
0.237	22.89	99.9461	3.3232	-25.579
0.245	22.93	99.9415	3.3231	-25.563
0.253	22.96	99.9368	3.3229	-25.547
0.262	23.00	99.9320	3.3228	-25.531
0.270	23.03	99.9273	3.3226	-25.517
0.278	23.07	99.9224	3.3224	-25.502
0.287	23.10	99.9175	3.3223	-25.487
0.295	23.14	99.9124	3.3221	-25.473
0.303	23.17	99.9073	3.3219	-25.460
0.312	23.21	99.9021	3.3218	-25.446
0.320	23.24	99.8967	3.3216	-25.431
0.328	23.28	99.8912	3.3214	-25.416
0.337	23.31	99.8857	3.3212	-25.403
0.345	23.34	99.8800	3.3210	-25.390
0.353	23.38	99.8741	3.3208	-25.376
0.362	23.41	99.8682	3.3206	-25.363
0.370	23.45	99.8621	3.3204	-25.350
0.378	23.48	99.8559	3.3202	-25.337
0.387	23.52	99.8497	3.3200	-25.324
0.395	23.55	99.8433	3.3198	-25.310
0.403	23.59	99.8368	3.3196	-25.297
0.412	23.62	99.8303	3.3194	-25.285
0.420	23.65	99.8236	3.3191	-25.273
0.428	23.69	99.8168	3.3189	-25.261
0.437	23.72	99.8100	3.3187	-25.250
0.445	23.76	99.8030	3.3185	-25.239
0.453	23.79	99.7960	3.3182	-25.228
0.462	23.83	99.7888	3.3180	-25.217
0.470	23.86	99.7815	3.3177	-25.207
0.478	23.90	99.7742	3.3175	-25.198
0.487	23.93	99.7667	3.3173	-25.188
0.495	23.97	99.7591	3.3170	-25.178
0.503	24.01	99.7514	3.3167	-25.168
0.512	24.04	99.7435	3.3165	-25.158
0.520	24.08	99.7355	3.3162	-25.147
0.528	24.12	99.7274	3.3159	-25.138
0.537	24.15	99.7191	3.3157	-25.128
0.545	24.19	99.7108	3.3154	-25.120
0.553	24.23	99.7023	3.3151	-25.111
0.562	24.27	99.6937	3.3148	-25.104
0.570	24.31	99.6849	3.3145	-25.097
0.578	24.34	99.6761	3.3142	-25.090
0.587	24.38	99.6672	3.3139	-25.084
0.595	24.42	99.6581	3.3136	-25.077
0.603	24.46	99.6490	3.3133	-25.070
0.612	24.50	99.6398	3.3130	-25.063
0.620	24.54	99.6305	3.3127	-25.056
0.628	24.58	99.6212	3.3124	-25.050
0.637	24.62	99.6118	3.3121	-25.043
0.645	24.67	99.6023	3.3118	-25.036
0.653	24.71	99.5928	3.3115	-25.029
0.662	24.75	99.5832	3.3112	-25.022
0.670	24.79	99.5736	3.3108	-25.016
0.678	24.84	99.5640	3.3105	-25.010
0.687	24.88	99.5543	3.3102	-25.005
0.695	24.92	99.5447	3.3099	-25.000
0.703	24.97	99.5350	3.3095	-24.995
0.712	25.01	99.5253	3.3092	-24.990
0.720	25.06	99.5156	3.3089	-24.986
0.728	25.10	99.5060	3.3086	-24.982
0.737	25.15	99.4963	3.3083	-24.977
0.745	25.19	99.4867	3.3079	-24.974
0.753	25.24	99.4771	3.3076	-24.970
0.762	25.29	99.4675	3.3073	-24.966
0.770	25.34	99.4579	3.3070	-24.962
0.778	25.38	99.4484	3.3067	-24.958
0.787	25.43	99.4389	3.3064	-24.953
0.795	25.48	99.4295	3.3060	-24.948
0.803	25.53	99.4201	3.3057	-24.942
0.812	25.58	99.4108	3.3054	-24.936
0.820	25.63	99.4015	3.3051	-24.929
0.828	25.68	99.3923	3.3048	-24.923
0.837	25.73	99.3832	3.3045	-24.916
0.845	25.78	99.3741	3.3042	-24.910
0.853	25.83	99.3651	3.3039	-24.902
0.862	25.88	99.3562	3.3036	-24.894
0.870	25.94	99.3473	3.3033	-24.886
0.878	25.99	99.3386	3.3030	-24.877
0.887	26.04	99.3298	3.3027	-24.868
0.895	26.10	99.3212	3.3024	-24.858
0.903	26.15	99.3126	3.3022	-24.848
0.912	26.20	99.3041	3.3019	-24.837
0.920	26.26	99.2956	3.3016	-24.826
0.928	26.32	99.2872	3.3013	-24.815
0.937	26.37	99.2789	3.3010	-24.803
0.945	26.43	99.2707	3.3008	-24.791
0.953	26.48	99.2626	3.3005	-24.779
0.962	26.54	99.2545	3.3002	-24.766
0.970	26.60	99.2466	3.3000	-24.752
0.978	26.66	99.2386	3.2997	-24.737
0.987	26.72	99.2308	3.2994	-24.721
0.995	26.77	99.2231	3.2992	-24.704
1.003	26.83	99.2155	3.2989	-24.687
1.012	26.89	99.2078	3.2987	-24.668
1.020	26.95	99.2003	3.2984	-24.647
1.028	27.01	99.1928	3.2982	-24.628
1.037	27.07	99.1854	3.2979	-24.608
1.045	27.14	99.1781	3.2977	-24.588
1.053	27.20	99.1707	3.2974	-24.567
1.062	27.26	99.1635	3.2972	-24.546
1.070	27.32	99.1562	3.2970	-24.524
1.078	27.39	99.1491	3.2967	-24.501
1.087	27.45	99.1419	3.2965	-24.477
1.095	27.52	99.1348	3.2962	-24.454
1.103	27.58	99.1277	3.2960	-24.429
1.112	27.65	99.1206	3.2958	-24.403
1.120	27.71	99.1136	3.2955	-24.374
1.128	27.78	99.1066	3.2953	-24.345
1.137	27.84	99.0997	3.2951	-24.315
1.145	27.91	99.0928	3.2948	-24.284
1.153	27.98	99.0859	3.2946	-24.253
1.162	28.05	99.0791	3.2944	-24.222
1.170	28.12	99.0722	3.2942	-24.190
1.178	28.19	99.0654	3.2939	-24.157
1.187	28.26	99.0586	3.2937	-24.124
1.195	28.32	99.0519	3.2935	-24.090
1.203	28.39	99.0451	3.2933	-24.056
1.212	28.47	99.0384	3.2930	-24.020
1.220	28.54	99.0316	3.2928	-23.985
1.228	28.61	99.0249	3.2926	-23.949
1.237	28.68	99.0182	3.2924	-23.912
1.245	28.75	99.0115	3.2921	-23.874
1.253	28.82	99.0048	3.2919	-23.835
1.262	28.89	98.9980	3.2917	-23.796
1.270	28.97	98.9913	3.2915	-23.754
1.278	29.04	98.9846	3.2912	-23.712
1.287	29.11	98.9779	3.2910	-23.670
1.295	29.19	98.9711	3.2908	-23.626
1.303	29.26	98.9643	3.2906	-23.581
1.312	29.34	98.9575	3.2903	-23.537
1.320	29.41	98.9507	3.2901	-23.492
1.328	29.49	98.9439	3.2899	-23.446
1.337	29.57	98.9370	3.2897	-23.401
1.345	29.64	98.9302	3.2894	-23.353
1.353	29.72	98.9233	3.2892	-23.307
1.362	29.80	98.9164	3.2890	-23.261
1.370	29.87	98.9095	3.2888	-23.213
1.378	29.95	98.9026	3.2885	-23.166
1.387	30.03	98.8957	3.2883	-23.119
1.395	30.11	98.8887	3.2881	-23.069
1.403	30.19	98.8818	3.2878	-23.020
1.412	30.27	98.8748	3.2876	-22.969
1.420	30.35	98.8678	3.2874	-22.917
1.428	30.43	98.8608	3.2871	-22.865
1.437	30.51	98.8538	3.2869	-22.811
1.445	30.59	98.8468	3.2867	-22.756
1.453	30.67	98.8397	3.2864	-22.703
1.462	30.75	98.8326	3.2862	-22.648
1.470	30.83	98.8255	3.2860	-22.592
1.478	30.91	98.8184	3.2857	-22.537
1.487	30.99	98.8112	3.2855	-22.480
1.495	31.08	98.8041	3.2852	-22.423
1.503	31.16	98.7969	3.2850	-22.366
1.512	31.24	98.7896	3.2848	-22.308
1.520	31.33	98.7824	3.2845	-22.251
1.528	31.41	98.7751	3.2843	-22.195
1.537	31.49	98.7678	3.2840	-22.136
1.545	31.58	98.7605	3.2838	-22.077
1.553	31.66	98.7531	3.2836	-22.018
1.562	31.75	98.7457	3.2833	-21.958
1.570	31.83	98.7384	3.2831	-21.899
1.578	31.91	98.7309	3.2828	-21.838
1.587	32.00	98.7235	3.2826	-21.777
1.595	32.08	98.7161	3.2823	-21.717
1.603	32.17	98.7086	3.2821	-21.655
1.612	32.26	98.7010	3.2818	-21.592
1.620	32.34	98.6935	3.2816	-21.529
1.628	32.43	98.6860	3.2813	-21.468
1.637	32.52	98.6784	3.2811	-21.406
1.645	32.60	98.6708	3.2808	-21.343
1.653	32.69	98.6632	3.2806	-21.280
1.662	32.77	98.6555	3.2803	-21.218
1.670	32.86	98.6479	3.2801	-21.154
1.678	32.95	98.6402	3.2798	-21.090
1.687	33.04	98.6326	3.2795	-21.025
1.695	33.13	98.6250	3.2793	-20.961
1.703	33.21	98.6174	3.2790	-20.896
1.712	33.30	98.6097	3.2788	-20.831
1.720	33.39	98.6021	3.2785	-20.765
1.728	33.48	98.5944	3.2783	-20.699
1.737	33.57	98.5868	3.2780	-20.633
1.745	33.65	98.5791	3.2778	-20.567
1.753	33.74	98.5714	3.2775	-20.501
1.762	33.83	98.5637	3.2773	-20.434
1.770	33.92	98.5559	3.2770	-20.368
1.778	34.01	98.5482	3.2767	-20.302
1.787	34.10	98.5404	3.2765	-20.235
1.795	34.19	98.5326	3.2762	-20.168
1.803	34.28	98.5248	3.2760	-20.101
1.812	34.37	98.5169	3.2757	-20.035
1.820	34.46	98.5091	3.2754	-19.967
1.828	34.55	98.5012	3.2752	-19.898
1.837	34.64	98.4933	3.2749	-19.831
1.845	34.73	98.4855	3.2747	-19.762
1.853	34.82	98.4775	3.2744	-19.692
1.862	34.92	98.4696	3.2741	-19.622
1.870	35.01	98.4617	3.2739	-19.553
1.878	35.10	98.4538	3.2736	-19.484
1.887	35.19	98.4458	3.2733	-19.414
1.895	35.28	98.4379	3.2731	-19.344
1.903	35.37	98.4299	3.2728	-19.274
1.912	35.46	98.4219	3.2725	-19.204
1.920	35.56	98.4139	3.2723	-19.134
1.928	35.65	98.4059	3.2720	-19.063
1.937	35.74	98.3979	3.2717	-18.993
1.945	35.83	98.3899	3.2715	-18.923
1.953	35.92	98.3819	3.2712	-18.853
1.962	36.02	98.3738	3.2709	-18.783
1.970	36.11	98.3658	3.2707	-18.712
1.978	36.20	98.3577	3.2704	-18.641
1.987	36.29	98.3496	3.2701	-18.569
1.995	36.39	98.3414	3.2699	-18.499
2.003	36.48	98.3333	3.2696	-18.427
2.012	36.57	98.3251	3.2693	-18.357
2.020	36.67	98.3169	3.2690	-18.286
2.028	36.76	98.3087	3.2688	-18.214
2.037	36.85	98.3004	3.2685	-18.143
2.045	36.94	98.2922	3.2682	-18.072
2.053	37.04	98.2839	3.2679	-18.001
2.062	37.13	98.2756	3.2677	-17.929
2.070	37.22	98.2673	3.2674	-17.858
2.078	37.31	98.2590	3.2671	-17.786
2.087	37.41	98.2507	3.2668	-17.714
2.095	37.50	98.2424	3.2666	-17.642
2.103	37.60	98.2340	3.2663	-17.568
2.112	37.69	98.2256	3.2660	-17.495
2.120	37.78	98.2172	3.2657	-17.421
2.128	37.88	98.2088	3.2655	-17.347
2.137	37.97	98.2004	3.2652	-17.273
2.145	38.06	98.1919	3.2649	-17.201
2.153	38.16	98.1834	3.2646	-17.128
2.162	38.25	98.1749	3.2643	-17.055
2.170	38.35	98.1664	3.2640	-16.982
2.178	38.44	98.1579	3.2638	-16.909
2.187	38.53	98.1494	3.2635	-16.837
2.195	38.63	98.1408	3.2632	-16.765
2.203	38.72	98.1323	3.2629	-16.692
2.212	38.82	98.1238	3.2626	-16.619
2.220	38.91	98.1152	3.2623	-16.546
2.228	39.00	98.1066	3.2621	-16.472
2.237	39.10	98.0980	3.2618	-16.399
2.245	39.19	98.0894	3.2615	-16.326
2.253	39.29	98.0808	3.2612	-16.252
2.262	39.38	98.0722	3.2609	-16.178
2.270	39.47	98.0636	3.2606	-16.105
2.278	39.57	98.0549	3.2603	-16.033
2.287	39.66	98.0462	3.2600	-15.960
2.295	39.75	98.0376	3.2598	-15.887
2.303	39.85	98.0289	3.2595	-15.814
2.312	39.94	98.0202	3.2592	-15.740
2.320	40.03	98.0115	3.2589	-15.668
2.328	40.13	98.0028	3.2586	-15.594
2.337	40.22	97.9941	3.2583	-15.522
2.345	40.32	97.9854	3.2580	-15.450
2.353	40.41	97.9766	3.2577	-15.377
2.362	40.50	97.9679	3.2574	-15.302
2.370	40.60	97.9591	3.2571	-15.229
2.378	40.69	97.9503	3.2569	-15.155
2.387	40.79	97.9415	3.2566	-15.083
2.395	40.88	97.9327	3.2563	-15.012
2.403	40.97	97.9238	3.2560	-14.940
2.412	41.07	97.9150	3.2557	-14.867
2.420	41.16	97.9062	3.2554	-14.794
2.428	41.26	97.8973	3.2551	-14.721
2.437	41.35	97.8885	3.2548	-14.648
2.445	41.44	97.8796	3.2545	-14.575
2.453	41.54	97.8707	3.2542	-14.502
2.462	41.63	97.8618	3.2539	-14.430
2.470	41.73	97.8529	3.2536	-14.356
2.478	41.82	97.8440	3.2533	-14.283
2.487	41.91	97.8351	3.2530	-14.209
2.495	42.01	97.8262	3.2527	-14.137
2.503	42.10	97.8172	3.2524	-14.065
2.512	42.19	97.8083	3.2521	-13.993
2.520	42.29	97.7993	3.2518	-13.920
2.528	42.38	97.7904	3.2515	-13.848
2.537	42.47	97.7814	3.2512	-13.777
2.545	42.57	97.7724	3.2509	-13.705
2.553	42.66	97.7634	3.2506	-13.633
2.562	42.75	97.7544	3.2503	-13.562
2.570	42.85	97.7453	3.2500	-13.490
2.578	42.94	97.7363	3.2497	-13.418
2.587	43.03	97.7272	3.2494	-13.346
2.595	43.13	97.7182	3.2491	-13.274
2.603	43.22	97.7091	3.2488	-13.204
2.612	43.31	97.7000	3.2485	-13.133
2.620	43.41	97.6909	3.2482	-13.062
2.628	43.50	97.6818	3.2479	-12.990
2.637	43.59	97.6728	3.2476	-12.919
2.645	43.68	97.6637	3.2473	-12.848
2.653	43.78	97.6546	3.2470	-12.777
2.662	43.87	97.6455	3.2467	-12.706
2.670	43.96	97.6364	3.2464	-12.635
2.678	44.06	97.6273	3.2461	-12.563
2.687	44.15	97.6183	3.2458	-12.491
2.695	44.24	97.6092	3.2455	-12.421
2.703	44.33	97.6001	3.2452	-12.350
2.712	44.43	97.5909	3.2449	-12.279
2.720	44.52	97.5818	3.2446	-12.208
2.728	44.61	97.5727	3.2443	-12.138
2.737	44.70	97.5635	3.2440	-12.066
2.745	44.80	97.5543	3.2437	-11.997
2.753	44.89	97.5452	3.2434	-11.927
2.762	44.98	97.5360	3.2431	-11.859
2.770	45.07	97.5268	3.2428	-11.790
2.778	45.16	97.5176	3.2425	-11.721
2.787	45.26	97.5084	3.2422	-11.652
2.795	45.35	97.4992	3.2419	-11.583
2.803	45.44	97.4900	3.2416	-11.515
2.812	45.53	97.4808	3.2412	-11.446
2.820	45.62	97.4716	3.2409	-11.377
2.828	45.71	97.4624	3.2406	-11.309
2.837	45.80	97.4531	3.2403	-11.241
2.845	45.90	97.4439	3.2400	-11.172
2.853	45.99	97.4347	3.2397	-11.104
2.862	46.08	97.4255	3.2394	-11.035
2.870	46.17	97.4162	3.2391	-10.967
2.878	46.26	97.4070	3.2388	-10.899
2.887	46.35	97.3977	3.2385	-10.832
2.895	46.45	97.3885	3.2382	-10.764
2.903	46.54	97.3792	3.2379	-10.696
2.912	46.63	97.3700	3.2376	-10.627
2.920	46.72	97.3607	3.2373	-10.559
2.928	46.81	97.3515	3.2369	-10.490
2.937	46.90	97.3423	3.2366	-10.420
2.945	46.99	97.3331	3.2363	-10.352
2.953	47.08	97.3238	3.2360	-10.285
2.962	47.17	97.3146	3.2357	-10.216
2.970	47.27	97.3053	3.2354	-10.149
2.978	47.36	97.2961	3.2351	-10.081
2.987	47.45	97.2868	3.2348	-10.013
2.995	47.54	97.2775	3.2345	-9.947
3.003	47.63	97.2683	3.2342	-9.879
3.012	47.72	97.2591	3.2339	-9.813
3.020	47.81	97.2498	3.2336	-9.748
3.028	47.90	97.2406	3.2333	-9.682
3.037	47.99	97.2314	3.2330	-9.615
3.045	48.08	97.2222	3.2326	-9.549
3.053	48.17	97.2130	3.2323	-9.482
3.062	48.26	97.2038	3.2320	-9.417
3.070	48.35	97.1946	3.2317	-9.352
3.078	48.44	97.1853	3.2314	-9.287
3.087	48.53	97.1761	3.2311	-9.222
3.095	48.62	97.1669	3.2308	-9.159
3.103	48.71	97.1577	3.2305	-9.095
3.112	48.80	97.1485	3.2302	-9.030
3.120	48.89	97.1393	3.2299	-8.967
3.128	48.98	97.1301	3.2296	-8.903
3.137	49.06	97.1209	3.2293	-8.839
3.145	49.15	97.1117	3.2290	-8.776
3.153	49.24	97.1025	3.2287	-8.712
3.162	49.33	97.0934	3.2284	-8.648
3.170	49.42	97.0842	3.2281	-8.585
3.178	49.51	97.0750	3.2278	-8.519
3.187	49.60	97.0659	3.2275	-8.455
3.195	49.69	97.0568	3.2271	-8.391
3.203	49.78	97.0476	3.2268	-8.328
3.212	49.87	97.0386	3.2265	-8.266
3.220	49.96	97.0295	3.2262	-8.203
3.228	50.05	97.0204	3.2259	-8.141
3.237	50.13	97.0113	3.2256	-8.080
3.245	50.22	97.0023	3.2253	-8.018
3.253	50.31	96.9932	3.2250	-7.956
3.262	50.40	96.9841	3.2247	-7.894
3.270	50.49	96.9750	3.2244	-7.833
3.278	50.58	96.9660	3.2241	-7.772
3.287	50.66	96.9570	3.2238	-7.709
3.295	50.75	96.9479	3.2235	-7.647
3.303	50.84	96.9389	3.2232	-7.584
3.312	50.93	96.9299	3.2229	-7.521
3.320	51.02	96.9209	3.2226	-7.458
3.328	51.11	96.9119	3.2223	-7.396
3.337	51.20	96.9030	3.2220	-7.333
3.345	51.28	96.8940	3.2217	-7.271
3.353	51.37	96.8851	3.2214	-7.209
3.362	51.46	96.8761	3.2211	-7.147
3.370	51.55	96.8672	3.2208	-7.087
3.378	51.63	96.8582	3.2205	-7.026
3.387	51.72	96.8493	3.2202	-6.966
3.395	51.81	96.8404	3.2200	-6.906
3.403	51.90	96.8315	3.2197	-6.847
3.412	51.98	96.8227	3.2194	-6.788
3.420	52.07	96.8138	3.2191	-6.728
3.428	52.16	96.8049	3.2188	-6.669
3.437	52.25	96.7961	3.2185	-6.610
3.445	52.33	96.7873	3.2182	-6.550
3.453	52.42	96.7785	3.2179	-6.491
3.462	52.51	96.7697	3.2176	-6.431
3.470	52.60	96.7609	3.2173	-6.372
3.478	52.68	96.7522	3.2170	-6.312
3.487	52.77	96.7434	3.2167	-6.251
3.495	52.86	96.7347	3.2164	-6.192
3.503	52.95	96.7259	3.2161	-6.132
3.512	53.03	96.7172	3.2159	-6.072
3.520	53.12	96.7085	3.2156	-6.012
3.528	53.21	96.6999	3.2153	-5.952
3.537	53.29	96.6912	3.2150	-5.893
3.545	53.38	96.6826	3.2147	-5.835
3.553	53.47	96.6739	3.2144	-5.776
3.562	53.56	96.6653	3.2141	-5.718
3.570	53.64	96.6568	3.2138	-5.661
3.578	53.73	96.6482	3.2136	-5.604
3.587	53.82	96.6397	3.2133	-5.547
3.595	53.90	96.6312	3.2130	-5.492
3.603	53.99	96.6227	3.2127	-5.436
3.612	54.08	96.6142	3.2124	-5.379
3.620	54.16	96.6057	3.2121	-5.323
3.628	54.25	96.5972	3.2119	-5.266
3.637	54.34	96.5888	3.2116	-5.210
3.645	54.42	96.5804	3.2113	-5.154
3.653	54.51	96.5720	3.2110	-5.097
3.662	54.60	96.5636	3.2107	-5.040
3.670	54.68	96.5552	3.2105	-4.984
3.678	54.77	96.5468	3.2102	-4.926
3.687	54.86	96.5385	3.2099	-4.870
3.695	54.94	96.5302	3.2096	-4.814
3.703	55.03	96.5218	3.2094	-4.759
3.712	55.12	96.5136	3.2091	-4.704
3.720	55.20	96.5053	3.2088	-4.648
3.728	55.29	96.4970	3.2085	-4.592
3.737	55.37	96.4887	3.2083	-4.537
3.745	55.46	96.4805	3.2080	-4.483
3.753	55.55	96.4722	3.2077	-4.427
3.762	55.63	96.4640	3.2074	-4.373
3.770	55.72	96.4558	3.2072	-4.318
3.778	55.81	96.4477	3.2069	-4.263
3.787	55.89	96.4395	3.2066	-4.208
3.795	55.98	96.4314	3.2064	-4.153
3.803	56.06	96.4232	3.2061	-4.098
3.812	56.15	96.4151	3.2058	-4.044
3.820	56.24	96.4071	3.2055	-3.990
3.828	56.32	96.3990	3.2053	-3.936
3.837	56.41	96.3909	3.2050	-3.883
3.845	56.49	96.3829	3.2047	-3.829
3.853	56.58	96.3748	3.2045	-3.775
3.862	56.66	96.3668	3.2042	-3.722
3.870	56.75	96.3588	3.2039	-3.667
3.878	56.84	96.3509	3.2037	-3.613
3.887	56.92	96.3429	3.2034	-3.559
3.895	57.01	96.3349	3.2031	-3.506
3.903	57.09	96.3270	3.2029	-3.453
3.912	57.18	96.3192	3.2026	-3.400
3.920	57.27	96.3113	3.2024	-3.347
3.928	57.35	96.3035	3.2021	-3.295
3.937	57.44	96.2958	3.2018	-3.242
3.945	57.52	96.2880	3.2016	-3.190
3.953	57.61	96.2803	3.2013	-3.138
3.962	57.69	96.2726	3.2011	-3.086
3.970	57.78	96.2649	3.2008	-3.034
3.978	57.87	96.2573	3.2006	-2.982
3.987	57.95	96.2497	3.2003	-2.929
3.995	58.04	96.2421	3.2001	-2.877
4.003	58.12	96.2346	3.1998	-2.825
4.012	58.21	96.2271	3.1996	-2.772
4.020	58.29	96.2196	3.1993	-2.720
4.028	58.38	96.2121	3.1991	-2.667
4.037	58.46	96.2046	3.1988	-2.616
4.045	58.55	96.1972	3.1986	-2.564
4.053	58.64	96.1898	3.1983	-2.514
4.062	58.72	96.1824	3.1981	-2.463
4.070	58.81	96.1751	3.1978	-2.412
4.078	58.89	96.1678	3.1976	-2.361
4.087	58.98	96.1605	3.1973	-2.311
4.095	59.06	96.1532	3.1971	-2.260
4.103	59.15	96.1460	3.1969	-2.210
4.112	59.23	96.1388	3.1966	-2.160
4.120	59.32	96.1316	3.1964	-2.110
4.128	59.40	96.1244	3.1961	-2.060
4.137	59.49	96.1173	3.1959	-2.010
4.145	59.57	96.1102	3.1957	-1.959
4.153	59.66	96.1031	3.1954	-1.907
4.162	59.75	96.0961	3.1952	-1.856
4.170	59.83	96.0890	3.1950	-1.807
4.178	59.92	96.0820	3.1947	-1.758
4.187	60.00	96.0750	3.1945	-1.707
4.195	60.09	96.0681	3.1943	-1.658
4.203	60.17	96.0611	3.1940	-1.609
4.212	60.26	96.0542	3.1938	-1.560
4.220	60.34	96.0473	3.1936	-1.510
4.228	60.43	96.0404	3.1934	-1.463
4.237	60.51	96.0335	3.1931	-1.415
4.245	60.60	96.0267	3.1929	-1.368
4.253	60.68	96.0198	3.1927	-1.319
4.262	60.77	96.0130	3.1924	-1.271
4.270	60.85	96.0062	3.1922	-1.223
4.278	60.94	95.9994	3.1920	-1.176
4.287	61.03	95.9926	3.1918	-1.126
4.295	61.11	95.9859	3.1915	-1.078
4.303	61.20	95.9792	3.1913	-1.031
4.312	61.28	95.9725	3.1911	-0.983
4.320	61.37	95.9659	3.1909	-0.936
4.328	61.45	95.9593	3.1907	-0.889
4.337	61.54	95.9527	3.1904	-0.841
4.345	61.62	95.9462	3.1902	-0.794
4.353	61.71	95.9396	3.1900	-0.748
4.362	61.79	95.9331	3.1898	-0.701
4.370	61.88	95.9266	3.1896	-0.655
4.378	61.96	95.9201	3.1894	-0.608
4.387	62.05	95.9137	3.1891	-0.560
4.395	62.14	95.9073	3.1889	-0.513
4.403	62.22	95.9009	3.1887	-0.466
4.412	62.31	95.8945	3.1885	-0.419
4.420	62.39	95.8881	3.1883	-0.373
4.428	62.48	95.8818	3.1881	-0.326
4.437	62.56	95.8755	3.1879	-0.280
4.445	62.65	95.8692	3.1877	-0.234
4.453	62.73	95.8629	3.1875	-0.188
4.462	62.82	95.8567	3.1872	-0.143
4.470	62.90	95.8505	3.1870	-0.098
4.478	62.99	95.8443	3.1868	-0.052
4.487	63.07	95.8382	3.1866	-0.008
4.495	63.16	95.8320	3.1864	0.037
4.503	63.24	95.8259	3.1862	0.081
4.512	63.33	95.8198	3.1860	0.127
4.520	63.41	95.8137	3.1858	0.171
4.528	63.50	95.8077	3.1856	0.217
4.537	63.58	95.8016	3.1854	0.262
4.545	63.67	95.7956	3.1852	0.307
4.553	63.75	95.7896	3.1850	0.353
4.562	63.84	95.7837	3.1848	0.399
4.570	63.92	95.7778	3.1846	0.443
4.578	64.01	95.7720	3.1844	0.488
4.587	64.09	95.7661	3.1842	0.534
4.595	64.18	95.7603	3.1840	0.578
4.603	64.27	95.7545	3.1838	0.623
4.612	64.35	95.7488	3.1837	0.667
4.620	64.44	95.7431	3.1835	0.710
4.628	64.52	95.7374	3.1833	0.754
4.637	64.61	95.7317	3.1831	0.797
4.645	64.69	95.7261	3.1829	0.839
4.653	64.78	95.7205	3.1827	0.882
4.662	64.86	95.7149	3.1825	0.925
4.670	64.95	95.7094	3.1823	0.967
4.678	65.03	95.7038	3.1822	1.010
4.687	65.12	95.6983	3.1820	1.053
4.695	65.20	95.6928	3.1818	1.096
4.703	65.29	95.6874	3.1816	1.140
4.712	65.37	95.6819	3.1814	1.184
4.720	65.46	95.6765	3.1813	1.227
4.728	65.55	95.6711	3.1811	1.270
4.737	65.63	95.6657	3.1809	1.314
4.745	65.72	95.6604	3.1807	1.357
4.753	65.80	95.6550	3.1805	1.400
4.762	65.89	95.6497	3.1804	1.442
4.770	65.97	95.6445	3.1802	1.485
4.778	66.06	95.6392	3.1800	1.526
4.787	66.14	95.6340	3.1798	1.568
4.795	66.23	95.6288	3.1797	1.609
4.803	66.31	95.6237	3.1795	1.651
4.812	66.40	95.6186	3.1793	1.693
4.820	66.49	95.6135	3.1792	1.734
4.828	66.57	95.6085	3.1790	1.777
4.837	66.66	95.6034	3.1788	1.818
4.845	66.74	95.5984	3.1787	1.860
4.853	66.83	95.5934	3.1785	1.902
4.862	66.91	95.5884	3.1783	1.943
4.870	67.00	95.5835	3.1782	1.983
4.878	67.08	95.5786	3.1780	2.024
4.887	67.17	95.5737	3.1778	2.064
4.895	67.26	95.5688	3.1777	2.104
4.903	67.34	95.5640	3.1775	2.144
4.912	67.43	95.5591	3.1774	2.185
4.920	67.51	95.5544	3.1772	2.226
4.928	67.60	95.5496	3.1770	2.266
4.937	67.68	95.5449	3.1769	2.306
4.945	67.77	95.5402	3.1767	2.346
4.953	67.85	95.5356	3.1766	2.386
4.962	67.94	95.5309	3.1764	2.427
4.970	68.02	95.5263	3.1763	2.467
4.978	68.11	95.5217	3.1761	2.507
4.987	68.20	95.5171	3.1760	2.546
4.995	68.28	95.5125	3.1758	2.585
5.003	68.37	95.5080	3.1756	2.623
5.012	68.45	95.5034	3.1755	2.661
5.020	68.54	95.4989	3.1753	2.701
5.028	68.63	95.4944	3.1752	2.740
5.037	68.71	95.4899	3.1750	2.778
5.045	68.80	95.4855	3.1749	2.816
5.053	68.88	95.4810	3.1748	2.855
5.062	68.97	95.4766	3.1746	2.893
5.070	69.05	95.4722	3.1745	2.931
5.078	69.14	95.4679	3.1743	2.970
5.087	69.23	95.4635	3.1742	3.009
5.095	69.31	95.4592	3.1740	3.047
5.103	69.40	95.4549	3.1739	3.083
5.112	69.48	95.4507	3.1737	3.120
5.120	69.57	95.4464	3.1736	3.157
5.128	69.65	95.4422	3.1735	3.194
5.137	69.74	95.4380	3.1733	3.232
5.145	69.82	95.4339	3.1732	3.269
5.153	69.91	95.4298	3.1730	3.306
5.162	70.00	95.4257	3.1729	3.343
5.170	70.08	95.4217	3.1728	3.380
5.178	70.17	95.4177	3.1726	3.416
5.187	70.25	95.4137	3.1725	3.454
5.195	70.34	95.4097	3.1724	3.492
5.203	70.43	95.4058	3.1723	3.529
5.212	70.51	95.4019	3.1721	3.566
5.220	70.60	95.3980	3.1720	3.604
5.228	70.68	95.3941	3.1719	3.640
5.237	70.77	95.3902	3.1717	3.677
5.245	70.86	95.3864	3.1716	3.712
5.253	70.94	95.3825	3.1715	3.749
5.262	71.03	95.3787	3.1714	3.786
5.270	71.12	95.3749	3.1712	3.823
5.278	71.20	95.3712	3.1711	3.860
5.287	71.29	95.3674	3.1710	3.896
5.295	71.37	95.3637	3.1709	3.931
5.303	71.46	95.3600	3.1707	3.966
5.312	71.55	95.3564	3.1706	4.002
5.320	71.63	95.3527	3.1705	4.036
5.328	71.72	95.3491	3.1704	4.072
5.337	71.80	95.3455	3.1702	4.108
5.345	71.89	95.3419	3.1701	4.143
5.353	71.98	95.3383	3.1700	4.178
5.362	72.06	95.3347	3.1699	4.213
5.370	72.15	95.3312	3.1698	4.248
5.378	72.23	95.3277	3.1697	4.284
5.387	72.32	95.3242	3.1695	4.319
5.395	72.41	95.3208	3.1694	4.355
5.403	72.49	95.3174	3.1693	4.391
5.412	72.58	95.3139	3.1692	4.425
5.420	72.66	95.3106	3.1691	4.459
5.428	72.75	95.3072	3.1690	4.493
5.437	72.84	95.3039	3.1689	4.527
5.445	72.92	95.3006	3.1688	4.560
5.453	73.01	95.2973	3.1686	4.594
5.462	73.10	95.2940	3.1685	4.627
5.470	73.18	95.2907	3.1684	4.661
5.478	73.27	95.2875	3.1683	4.694
5.487	73.36	95.2842	3.1682	4.727
5.495	73.44	95.2810	3.1681	4.760
5.503	73.53	95.2777	3.1680	4.793
5.512	73.61	95.2745	3.1679	4.826
5.520	73.70	95.2713	3.1678	4.858
5.528	73.79	95.2681	3.1677	4.890
5.537	73.87	95.2649	3.1676	4.922
5.545	73.96	95.2618	3.1675	4.955
5.553	74.05	95.2586	3.1674	4.986
5.562	74.13	95.2555	3.1673	5.019
5.570	74.22	95.2525	3.1672	5.052
5.578	74.30	95.2494	3.1671	5.084
5.587	74.39	95.2464	3.1670	5.116
5.595	74.48	95.2434	3.1669	5.148
5.603	74.56	95.2404	3.1668	5.181
5.612	74.65	95.2374	3.1667	5.214
5.620	74.74	95.2345	3.1666	5.247
5.628	74.82	95.2316	3.1665	5.280
5.637	74.91	95.2287	3.1664	5.312
5.645	75.00	95.2259	3.1663	5.343
5.653	75.08	95.2230	3.1662	5.374
5.662	75.17	95.2202	3.1661	5.405
5.670	75.25	95.2174	3.1660	5.435
5.678	75.34	95.2147	3.1659	5.465
5.687	75.43	95.2119	3.1658	5.496
5.695	75.51	95.2092	3.1657	5.526
5.703	75.60	95.2065	3.1656	5.556
5.712	75.68	95.2038	3.1655	5.587
5.720	75.77	95.2011	3.1654	5.617
5.728	75.86	95.1985	3.1654	5.646
5.737	75.94	95.1959	3.1653	5.676
5.745	76.03	95.1932	3.1652	5.707
5.753	76.12	95.1907	3.1651	5.738
5.762	76.20	95.1881	3.1650	5.768
5.770	76.29	95.1855	3.1649	5.798
5.778	76.38	95.1829	3.1648	5.826
5.787	76.46	95.1804	3.1648	5.857
5.795	76.55	95.1779	3.1647	5.888
5.803	76.64	95.1754	3.1646	5.918
5.812	76.72	95.1729	3.1645	5.949
5.820	76.81	95.1704	3.1644	5.979
5.828	76.90	95.1680	3.1643	6.008
5.837	76.98	95.1655	3.1643	6.037
5.845	77.07	95.1631	3.1642	6.067
5.853	77.16	95.1607	3.1641	6.097
5.862	77.24	95.1583	3.1640	6.126
5.870	77.33	95.1560	3.1639	6.154
5.878	77.41	95.1537	3.1639	6.183
5.887	77.50	95.1514	3.1638	6.210
5.895	77.59	95.1491	3.1637	6.239
5.903	77.67	95.1468	3.1636	6.268
5.912	77.76	95.1446	3.1636	6.297
5.920	77.85	95.1424	3.1635	6.326
5.928	77.93	95.1401	3.1634	6.354
5.937	78.02	95.1379	3.1633	6.382
5.945	78.11	95.1357	3.1633	6.410
5.953	78.19	95.1335	3.1632	6.438
5.962	78.28	95.1313	3.1631	6.466
5.970	78.37	95.1291	3.1631	6.495
5.978	78.45	95.1270	3.1630	6.522
5.987	78.54	95.1248	3.1629	6.551
5.995	78.63	95.1227	3.1628	6.579
6.003	78.71	95.1206	3.1628	6.606
6.012	78.80	95.1185	3.1627	6.634
6.020	78.89	95.1165	3.1626	6.662
6.028	78.97	95.1145	3.1626	6.689
6.037	79.06	95.1124	3.1625	6.716
6.045	79.15	95.1104	3.1624	6.743
6.053	79.23	95.1084	3.1624	6.770
6.062	79.32	95.1064	3.1623	6.797
6.070	79.41	95.1045	3.1622	6.823
6.078	79.49	95.1025	3.1622	6.849
6.087	79.58	95.1006	3.1621	6.875
6.095	79.67	95.0987	3.1620	6.901
6.103	79.75	95.0968	3.1620	6.927
6.112	79.84	95.0949	3.1619	6.952
6.120	79.93	95.0931	3.1619	6.978
6.128	80.01	95.0913	3.1618	7.004
6.137	80.10	95.0894	3.1617	7.029
6.145	80.19	95.0876	3.1617	7.055
6.153	80.27	95.0858	3.1616	7.082
6.162	80.36	95.0840	3.1616	7.108
6.170	80.45	95.0822	3.1615	7.133
6.178	80.53	95.0805	3.1614	7.158
6.187	80.62	95.0787	3.1614	7.183
6.195	80.71	95.0769	3.1613	7.209
6.203	80.79	95.0752	3.1613	7.233
6.212	80.88	95.0734	3.1612	7.258
6.220	80.97	95.0717	3.1611	7.283
6.228	81.05	95.0700	3.1611	7.307
6.237	81.14	95.0684	3.1610	7.331
6.245	81.23	95.0667	3.1610	7.356
6.253	81.31	95.0651	3.1609	7.380
6.262	81.40	95.0635	3.1609	7.405
6.270	81.48	95.0619	3.1608	7.429
6.278	81.57	95.0603	3.1608	7.452
6.287	81.66	95.0587	3.1607	7.476
6.295	81.75	95.0572	3.1607	7.500
6.303	81.83	95.0556	3.1606	7.523
6.312	81.92	95.0541	3.1606	7.547
6.320	82.01	95.0525	3.1605	7.570
6.328	82.09	95.0510	3.1605	7.592
6.337	82.18	95.0495	3.1604	7.615
6.345	82.27	95.0480	3.1604	7.639
6.353	82.35	95.0465	3.1603	7.662
6.362	82.44	95.0450	3.1603	7.686
6.370	82.53	95.0435	3.1602	7.710
6.378	82.61	95.0421	3.1602	7.733
6.387	82.70	95.0406	3.1601	7.756
6.395	82.79	95.0392	3.1601	7.780
6.403	82.87	95.0378	3.1600	7.802
6.412	82.96	95.0365	3.1600	7.825
6.420	83.05	95.0351	3.1599	7.848
6.428	83.13	95.0338	3.1599	7.871
6.437	83.22	95.0325	3.1598	7.894
6.445	83.31	95.0312	3.1598	7.916
6.453	83.39	95.0299	3.1598	7.938
6.462	83.48	95.0287	3.1597	7.959
6.470	83.57	95.0274	3.1597	7.981
6.478	83.65	95.0262	3.1596	8.003
6.487	83.74	95.0250	3.1596	8.023
6.495	83.83	95.0237	3.1595	8.043
6.503	83.91	95.0225	3.1595	8.065
6.512	84.00	95.0213	3.1595	8.087
6.520	84.09	95.0201	3.1594	8.108
6.528	84.17	95.0189	3.1594	8.131
6.537	84.26	95.0177	3.1593	8.154
6.545	84.35	95.0165	3.1593	8.176
6.553	84.43	95.0153	3.1593	8.198
6.562	84.52	95.0141	3.1592	8.219
6.570	84.61	95.0129	3.1592	8.241
6.578	84.69	95.0118	3.1591	8.263
6.587	84.78	95.0106	3.1591	8.284
6.595	84.87	95.0095	3.1591	8.305
6.603	84.95	95.0083	3.1590	8.325
6.612	85.04	95.0072	3.1590	8.344
6.620	85.13	95.0060	3.1590	8.363
6.628	85.21	95.0049	3.1589	8.382
6.637	85.30	95.0038	3.1589	8.402
6.645	85.39	95.0027	3.1589	8.423
6.653	85.47	95.0017	3.1588	8.443
6.662	85.56	95.0006	3.1588	8.462
6.670	85.65	94.9996	3.1587	8.481
6.678	85.73	94.9985	3.1587	8.500
6.687	85.82	94.9975	3.1587	8.520
6.695	85.91	94.9965	3.1586	8.539
6.703	85.99	94.9955	3.1586	8.558
6.712	86.08	94.9946	3.1586	8.578
6.720	86.17	94.9936	3.1585	8.597
6.728	86.25	94.9926	3.1585	8.615
6.737	86.34	94.9917	3.1585	8.633
6.745	86.42	94.9908	3.1585	8.652
6.753	86.51	94.9898	3.1584	8.671
6.762	86.60	94.9889	3.1584	8.690
6.770	86.68	94.9881	3.1584	8.708
6.778	86.77	94.9871	3.1583	8.727
6.787	86.86	94.9863	3.1583	8.746
6.795	86.94	94.9854	3.1583	8.764
6.803	87.03	94.9845	3.1582	8.783
6.812	87.12	94.9837	3.1582	8.802
6.820	87.20	94.9828	3.1582	8.822
6.828	87.29	94.9820	3.1582	8.842
6.837	87.38	94.9811	3.1581	8.860
6.845	87.46	94.9803	3.1581	8.879
6.853	87.55	94.9795	3.1581	8.897
6.862	87.64	94.9787	3.1581	8.913
6.870	87.72	94.9779	3.1580	8.930
6.878	87.81	94.9772	3.1580	8.946
6.887	87.89	94.9764	3.1580	8.961
6.895	87.98	94.9757	3.1580	8.977
6.903	88.07	94.9749	3.1579	8.993
6.912	88.15	94.9741	3.1579	9.010
6.920	88.24	94.9734	3.1579	9.027
6.928	88.33	94.9727	3.1579	9.044
6.937	88.41	94.9719	3.1578	9.062
6.945	88.50	94.9712	3.1578	9.079
6.953	88.59	94.9705	3.1578	9.098
6.962	88.67	94.9698	3.1578	9.116
6.970	88.76	94.9691	3.1577	9.134
6.978	88.85	94.9684	3.1577	9.152
6.987	88.93	94.9677	3.1577	9.170
6.995	89.02	94.9670	3.1577	9.185
7.003	89.10	94.9664	3.1576	9.200
7.012	89.19	94.9657	3.1576	9.215
7.020	89.28	94.9651	3.1576	9.232
7.028	89.36	94.9645	3.1576	9.248
7.037	89.45	94.9639	3.1576	9.264
7.045	89.54	94.9633	3.1575	9.279
7.053	89.62	94.9627	3.1575	9.295
7.062	89.71	94.9621	3.1575	9.310
7.070	89.79	94.9615	3.1575	9.324
7.078	89.88	94.9609	3.1575	9.339
7.087	89.97	94.9604	3.1574	9.355
7.095	90.06	94.9598	3.1574	9.370
7.103	90.14	94.9592	3.1574	9.385
7.112	90.23	94.9587	3.1574	9.400
7.120	90.31	94.9581	3.1574	9.413
7.128	90.40	94.9576	3.1573	9.427
7.137	90.49	94.9570	3.1573	9.441
7.145	90.57	94.9565	3.1573	9.455
7.153	90.66	94.9559	3.1573	9.469
7.162	90.74	94.9554	3.1573	9.483
7.170	90.83	94.9549	3.1573	9.497
7.178	90.92	94.9544	3.1572	9.510
7.187	91.00	94.9539	3.1572	9.523
7.195	91.09	94.9534	3.1572	9.537
7.203	91.18	94.9529	3.1572	9.551
7.212	91.26	94.9525	3.1572	9.566
7.220	91.35	94.9520	3.1572	9.581
7.228	91.43	94.9516	3.1571	9.597
7.237	91.52	94.9511	3.1571	9.612
7.245	91.61	94.9507	3.1571	9.628
7.253	91.69	94.9503	3.1571	9.642
7.262	91.78	94.9499	3.1571	9.657
7.270	91.86	94.9495	3.1571	9.671
7.278	91.95	94.9491	3.1571	9.684
7.287	92.04	94.9486	3.1571	9.697
7.295	92.12	94.9482	3.1570	9.709
7.303	92.21	94.9478	3.1570	9.722
7.312	92.30	94.9474	3.1570	9.735
7.320	92.38	94.9470	3.1570	9.747
7.328	92.47	94.9466	3.1570	9.759
7.337	92.55	94.9462	3.1570	9.772
7.345	92.64	94.9459	3.1570	9.785
7.353	92.73	94.9455	3.1569	9.799
7.362	92.81	94.9451	3.1569	9.811
7.370	92.90	94.9447	3.1569	9.824
7.378	92.98	94.9444	3.1569	9.837
7.387	93.07	94.9440	3.1569	9.850
7.395	93.16	94.9437	3.1569	9.862
7.403	93.24	94.9433	3.1569	9.874
7.412	93.33	94.9430	3.1569	9.886
7.420	93.42	94.9427	3.1569	9.897
7.428	93.50	94.9424	3.1568	9.908
7.437	93.59	94.9421	3.1568	9.919
7.445	93.67	94.9418	3.1568	9.930
7.453	93.76	94.9415	3.1568	9.941
7.462	93.85	94.9412	3.1568	9.951
7.470	93.93	94.9409	3.1568	9.961
7.478	94.02	94.9406	3.1568	9.970
7.487	94.10	94.9404	3.1568	9.981
7.495	94.19	94.9401	3.1568	9.991
7.503	94.28	94.9399	3.1568	10.002
7.512	94.36	94.9396	3.1568	10.013
7.520	94.45	94.9393	3.1567	10.023
7.528	94.53	94.9391	3.1567	10.033
7.537	94.62	94.9388	3.1567	10.043
7.545	94.71	94.9385	3.1567	10.053
7.553	94.79	94.9383	3.1567	10.064
7.562	94.88	94.9380	3.1567	10.073
7.570	94.96	94.9378	3.1567	10.083
7.578	95.05	94.9375	3.1567	10.093
7.587	95.14	94.9373	3.1567	10.102
7.595	95.22	94.9370	3.1567	10.111
7.603	95.31	94.9368	3.1567	10.121
7.612	95.39	94.9365	3.1566	10.131
7.620	95.48	94.9363	3.1566	10.141
7.628	95.57	94.9360	3.1566	10.150
7.637	95.65	94.9358	3.1566	10.161
7.645	95.74	94.9355	3.1566	10.172
7.653	95.82	94.9353	3.1566	10.183
7.662	95.91	94.9351	3.1566	10.194
7.670	96.00	94.9348	3.1566	10.205
7.678	96.08	94.9346	3.1566	10.215
7.687	96.17	94.9344	3.1566	10.224
7.695	96.25	94.9342	3.1566	10.233
7.703	96.34	94.9340	3.1566	10.242
7.712	96.43	94.9339	3.1566	10.251
7.720	96.51	94.9337	3.1566	10.260
7.728	96.60	94.9335	3.1565	10.269
7.737	96.68	94.9333	3.1565	10.277
7.745	96.77	94.9331	3.1565	10.284
7.753	96.85	94.9329	3.1565	10.291
7.762	96.94	94.9328	3.1565	10.300
7.770	97.03	94.9326	3.1565	10.309
7.778	97.11	94.9325	3.1565	10.318
7.787	97.20	94.9324	3.1565	10.327
7.795	97.28	94.9323	3.1565	10.336
7.803	97.37	94.9322	3.1565	10.345
7.812	97.46	94.9322	3.1565	10.352
7.820	97.54	94.9321	3.1565	10.360
7.828	97.63	94.9320	3.1565	10.368
7.837	97.71	94.9320	3.1565	10.376
7.845	97.80	94.9319	3.1565	10.383
7.853	97.89	94.9318	3.1565	10.390
7.862	97.97	94.9318	3.1565	10.397
7.870	98.06	94.9317	3.1565	10.403
7.878	98.14	94.9316	3.1565	10.410
7.887	98.23	94.9315	3.1565	10.417
7.895	98.31	94.9314	3.1565	10.423
7.903	98.40	94.9313	3.1565	10.430
7.912	98.49	94.9311	3.1565	10.436
7.920	98.57	94.9310	3.1565	10.442
7.928	98.66	94.9309	3.1565	10.448
7.937	98.74	94.9308	3.1565	10.455
7.945	98.83	94.9307	3.1565	10.462
7.953	98.91	94.9305	3.1564	10.468
7.962	99.00	94.9304	3.1564	10.475
7.970	99.09	94.9303	3.1564	10.482
7.978	99.17	94.9303	3.1564	10.489
7.987	99.26	94.9302	3.1564	10.496
7.995	99.34	94.9301	3.1564	10.503
8.003	99.43	94.9300	3.1564	10.510
8.012	99.51	94.9299	3.1564	10.516
8.020	99.60	94.9299	3.1564	10.522
8.028	99.69	94.9298	3.1564	10.528
8.037	99.77	94.9297	3.1564	10.535
8.045	99.86	94.9297	3.1564	10.541
8.053	99.94	94.9296	3.1564	10.548
8.062	100.03	94.9295	3.1564	10.554
8.070	100.11	94.9294	3.1564	10.561
8.078	100.20	94.9293	3.1564	10.567
8.087	100.29	94.9292	3.1564	10.574
8.095	100.37	94.9290	3.1564	10.580
8.103	100.46	94.9289	3.1564	10.588
8.112	100.54	94.9288	3.1564	10.594
8.120	100.63	94.9287	3.1564	10.600
8.128	100.71	94.9286	3.1564	10.606
8.137	100.80	94.9285	3.1564	10.611
8.145	100.89	94.9284	3.1564	10.616
8.153	100.97	94.9283	3.1564	10.622
8.162	101.06	94.9281	3.1564	10.627
8.170	101.14	94.9280	3.1564	10.633
8.178	101.23	94.9279	3.1564	10.638
8.187	101.31	94.9278	3.1564	10.643
8.195	101.40	94.9276	3.1564	10.648
8.203	101.49	94.9275	3.1563	10.653
8.212	101.57	94.9274	3.1563	10.658
8.220	101.66	94.9273	3.1563	10.664
8.228	101.74	94.9272	3.1563	10.670
8.237	101.83	94.9271	3.1563	10.675
8.245	101.91	94.9271	3.1563	10.680
8.253	102.00	94.9270	3.1563	10.685
8.262	102.08	94.9269	3.1563	10.689
8.270	102.17	94.9269	3.1563	10.693
8.278	102.26	94.9268	3.1563	10.697
8.287	102.34	94.9268	3.1563	10.701
8.295	102.43	94.9267	3.1563	10.704
8.303	102.51	94.9267	3.1563	10.708
8.312	102.60	94.9267	3.1563	10.711
8.320	102.68	94.9266	3.1563	10.715
8.328	102.77	94.9266	3.1563	10.719
8.337	102.85	94.9265	3.1563	10.723
8.345	102.94	94.9265	3.1563	10.727
8.353	103.03	94.9264	3.1563	10.730
8.362	103.11	94.9264	3.1563	10.734
8.370	103.20	94.9264	3.1563	10.738
8.378	103.28	94.9263	3.1563	10.742
8.387	103.37	94.9263	3.1563	10.745
8.395	103.45	94.9263	3.1563	10.748
8.403	103.54	94.9263	3.1563	10.751
8.412	103.62	94.9263	3.1563	10.754
8.420	103.71	94.9262	3.1563	10.757
8.428	103.80	94.9262	3.1563	10.761
8.437	103.88	94.9262	3.1563	10.764
8.445	103.97	94.9262	3.1563	10.768
8.453	104.05	94.9262	3.1563	10.772
8.462	104.14	94.9261	3.1563	10.776
8.470	104.22	94.9261	3.1563	10.780
8.478	104.31	94.9260	3.1563	10.783
8.487	104.39	94.9260	3.1563	10.786
8.495	104.48	94.9260	3.1563	10.789
8.503	104.56	94.9260	3.1563	10.791
8.512	104.65	94.9260	3.1563	10.793
8.520	104.74	94.9259	3.1563	10.795
8.528	104.82	94.9259	3.1563	10.798
8.537	104.91	94.9259	3.1563	10.800
8.545	104.99	94.9258	3.1563	10.802
8.553	105.08	94.9258	3.1563	10.804
8.562	105.16	94.9258	3.1563	10.807
8.570	105.25	94.9257	3.1563	10.809
8.578	105.34	94.9257	3.1563	10.811
8.587	105.42	94.9256	3.1563	10.814
8.595	105.51	94.9255	3.1563	10.817
8.603	105.59	94.9255	3.1563	10.819
8.612	105.68	94.9255	3.1563	10.821
8.620	105.76	94.9254	3.1563	10.824
8.628	105.85	94.9254	3.1563	10.826
8.637	105.94	94.9254	3.1563	10.828
8.645	106.02	94.9253	3.1563	10.830
8.653	106.11	94.9253	3.1563	10.832
8.662	106.19	94.9253	3.1563	10.834
8.670	106.28	94.9253	3.1563	10.835
8.678	106.37	94.9252	3.1563	10.837
8.687	106.45	94.9252	3.1563	10.839
8.695	106.54	94.9252	3.1563	10.841
8.703	106.62	94.9252	3.1563	10.842
8.712	106.71	94.9251	3.1563	10.843

[step]
Isothermal 30.0 min
Time	Temperature	Weight	Weight	Heat Flow
min	°C	%	mg	mW
8.720	106.79	94.9251	3.1563	10.845
8.745	107.05	94.9251	3.1563	10.849
8.770	107.31	94.9252	3.1563	10.853
8.795	107.56	94.9252	3.1563	10.858
8.820	107.82	94.9252	3.1563	10.864
8.845	108.07	94.9252	3.1563	10.871
8.870	108.32	94.9252	3.1563	10.881
8.895	108.57	94.9253	3.1563	10.896
8.920	108.81	94.9254	3.1563	10.917
8.945	109.05	94.9252	3.1563	10.945
8.970	109.29	94.9251	3.1563	10.976
8.995	109.53	94.9249	3.1563	11.009
9.020	109.75	94.9247	3.1563	11.042
9.045	109.98	94.9245	3.1562	11.077
9.070	110.20	94.9242	3.1562	11.110
9.095	110.41	94.9240	3.1562	11.152
9.120	110.62	94.9236	3.1562	11.196
9.145	110.82	94.9233	3.1562	11.245
9.170	111.01	94.9228	3.1562	11.297
9.195	111.20	94.9223	3.1562	11.345
9.220	111.39	94.9218	3.1562	11.400
9.245	111.56	94.9212	3.1561	11.457
9.270	111.73	94.9207	3.1561	11.517
9.295	111.89	94.9202	3.1561	11.576
9.320	112.05	94.9195	3.1561	11.635
9.345	112.20	94.9188	3.1561	11.695
9.370	112.34	94.9182	3.1560	11.756
9.395	112.48	94.9175	3.1560	11.815
9.420	112.61	94.9169	3.1560	11.871
9.445	112.73	94.9161	3.1560	11.929
9.470	112.85	94.9154	3.1559	11.991
9.495	112.96	94.9147	3.1559	12.054
9.520	113.06	94.9142	3.1559	12.118
9.545	113.15	94.9137	3.1559	12.183
9.570	113.23	94.9131	3.1559	12.249
9.595	113.31	94.9124	3.1558	12.314
9.620	113.38	94.9116	3.1558	12.374
9.645	113.44	94.9105	3.1558	12.430
9.670	113.50	94.9093	3.1557	12.487
9.695	113.55	94.9082	3.1557	12.538
9.720	113.59	94.9071	3.1557	12.591
9.745	113.63	94.9061	3.1556	12.640
9.770	113.67	94.9051	3.1556	12.688
9.795	113.69	94.9040	3.1556	12.734
9.820	113.72	94.9029	3.1555	12.774
9.845	113.73	94.9019	3.1555	12.811
9.870	113.74	94.9009	3.1555	12.843
9.895	113.75	94.8998	3.1554	12.873
9.920	113.75	94.8988	3.1554	12.902
9.945	113.75	94.8976	3.1554	12.928
9.970	113.75	94.8964	3.1553	12.953
9.995	113.73	94.8952	3.1553	12.974
10.020	113.72	94.8941	3.1552	12.993
10.045	113.70	94.8930	3.1552	13.009
10.070	113.68	94.8920	3.1552	13.022
10.095	113.65	94.8909	3.1551	13.033
10.120	113.62	94.8898	3.1551	13.040
10.145	113.59	94.8886	3.1551	13.044
10.170	113.56	94.8873	3.1550	13.048
10.195	113.53	94.8861	3.1550	13.050
10.220	113.49	94.8848	3.1549	13.051
10.245	113.46	94.8837	3.1549	13.048
10.270	113.42	94.8827	3.1549	13.043
10.295	113.38	94.8818	3.1548	13.036
10.320	113.34	94.8811	3.1548	13.025
10.345	113.30	94.8803	3.1548	13.009
10.370	113.26	94.8796	3.1548	12.984
10.395	113.22	94.8788	3.1547	12.958
10.420	113.18	94.8782	3.1547	12.930
10.445	113.13	94.8776	3.1547	12.903
10.470	113.09	94.8770	3.1547	12.874
10.495	113.05	94.8764	3.1546	12.842
10.520	113.01	94.8757	3.1546	12.811
10.545	112.97	94.8750	3.1546	12.780
10.570	112.93	94.8743	3.1546	12.747
10.595	112.88	94.8737	3.1546	12.715
10.620	112.84	94.8732	3.1545	12.681
10.645	112.80	94.8726	3.1545	12.647
10.670	112.76	94.8721	3.1545	12.614
10.695	112.72	94.8716	3.1545	12.580
10.720	112.69	94.8710	3.1545	12.549
10.745	112.65	94.8705	3.1545	12.518
10.770	112.61	94.8701	3.1544	12.485
10.795	112.58	94.8698	3.1544	12.450
10.820	112.54	94.8696	3.1544	12.416
10.845	112.51	94.8693	3.1544	12.381
10.870	112.47	94.8691	3.1544	12.347
10.895	112.44	94.8688	3.1544	12.314
10.920	112.41	94.8685	3.1544	12.281
10.945	112.38	94.8683	3.1544	12.246
10.970	112.35	94.8679	3.1544	12.212
10.995	112.32	94.8677	3.1544	12.177
11.020	112.29	94.8674	3.1544	12.145
11.045	112.27	94.8672	3.1543	12.111
11.070	112.24	94.8669	3.1543	12.078
11.095	112.22	94.8667	3.1543	12.048
11.120	112.20	94.8666	3.1543	12.021
11.145	112.18	94.8666	3.1543	11.994
11.170	112.16	94.8665	3.1543	11.965
11.195	112.14	94.8662	3.1543	11.936
11.220	112.13	94.8660	3.1543	11.906
11.245	112.11	94.8657	3.1543	11.876
11.270	112.10	94.8655	3.1543	11.849
11.295	112.08	94.8652	3.1543	11.824
11.320	112.07	94.8649	3.1543	11.800
11.345	112.06	94.8646	3.1543	11.774
11.370	112.05	94.8643	3.1542	11.751
11.395	112.05	94.8641	3.1542	11.727
[...]
237.212	949.88	0.8175	0.0272	105.869
237.220	949.88	0.8174	0.0272	105.878
237.228	949.88	0.8174	0.0272	105.886
237.237	949.88	0.8173	0.0272	105.896
237.245	949.88	0.8172	0.0272	105.906
237.253	949.88	0.8171	0.0272	105.915
237.262	949.88	0.8171	0.0272	105.924
237.270	949.88	0.8170	0.0272	105.933
237.278	949.88	0.8169	0.0272	105.941
237.287	949.88	0.8168	0.0272	105.950
237.295	949.88	0.8167	0.0272	105.958
237.303	949.88	0.8167	0.0272	105.968
237.312	949.88	0.8166	0.0272	105.978
237.320	949.88	0.8165	0.0271	105.987
237.328	949.88	0.8165	0.0271	105.995
237.337	949.88	0.8164	0.0271	106.004
237.345	949.88	0.8163	0.0271	106.013
237.353	949.89	0.8162	0.0271	106.022
237.362	949.89	0.8162	0.0271	106.032
237.370	949.89	0.8161	0.0271	106.043
237.378	949.89	0.8160	0.0271	106.054
237.387	949.89	0.8159	0.0271	106.064
237.395	949.89	0.8158	0.0271	106.073
237.403	949.89	0.8158	0.0271	106.082
237.412	949.89	0.8157	0.0271	106.091
237.420	949.89	0.8156	0.0271	106.099
237.428	949.89	0.8155	0.0271	106.108
237.437	949.89	0.8155	0.0271	106.115
237.445	949.89	0.8154	0.0271	106.123
237.453	949.89	0.8153	0.0271	106.130
237.462	949.89	0.8152	0.0271	106.138
237.470	949.89	0.8151	0.0271	106.145
237.478	949.89	0.8150	0.0271	106.152
237.487	949.89	0.8149	0.0271	106.159
237.495	949.89	0.8148	0.0271	106.165
237.503	949.89	0.8147	0.0271	106.172
237.512	949.89	0.8146	0.0271	106.178
237.520	949.89	0.8145	0.0271	106.185
237.528	949.89	0.8144	0.0271	106.191
237.537	949.90	0.8143	0.0271	106.197
237.545	949.90	0.8142	0.0271	106.203
237.553	949.90	0.8140	0.0271	106.208
237.562	949.90	0.8139	0.0271	106.215
237.570	949.90	0.8138	0.0271	106.223
237.578	949.90	0.8137	0.0271	106.232
237.587	949.90	0.8135	0.0271	106.242
237.595	949.90	0.8134	0.0270	106.251
237.603	949.90	0.8133	0.0270	106.260
237.612	949.90	0.8132	0.0270	106.269
237.620	949.90	0.8131	0.0270	106.278
237.628	949.90	0.8129	0.0270	106.287
237.637	949.90	0.8128	0.0270	106.295
237.645	949.90	0.8127	0.0270	106.304
237.653	949.90	0.8126	0.0270	106.310
237.662	949.90	0.8125	0.0270	106.315
237.670	949.90	0.8123	0.0270	106.321
237.678	949.90	0.8122	0.0270	106.326
237.687	949.90	0.8122	0.0270	106.331
237.695	949.90	0.8121	0.0270	106.337
237.703	949.90	0.8120	0.0270	106.343
237.712	949.90	0.8119	0.0270	106.348
237.720	949.90	0.8118	0.0270	106.354
237.728	949.91	0.8117	0.0270	106.359
237.737	949.91	0.8117	0.0270	106.364
237.745	949.91	0.8116	0.0270	106.369
237.753	949.91	0.8116	0.0270	106.375
237.762	949.91	0.8115	0.0270	106.381
237.770	949.91	0.8114	0.0270	106.386
237.778	949.91	0.8114	0.0270	106.392
237.787	949.91	0.8114	0.0270	106.398
237.795	949.91	0.8113	0.0270	106.403
237.803	949.91	0.8113	0.0270	106.409
237.812	949.91	0.8113	0.0270	106.415
237.820	949.91	0.8112	0.0270	106.421
237.828	949.91	0.8112	0.0270	106.428
237.837	949.91	0.8111	0.0270	106.434
237.845	949.91	0.8111	0.0270	106.440
237.853	949.91	0.8110	0.0270	106.445
237.862	949.91	0.8109	0.0270	106.450
237.870	949.91	0.8108	0.0270	106.455
237.878	949.91	0.8107	0.0270	106.460
237.887	949.91	0.8106	0.0270	106.465
237.895	949.91	0.8105	0.0270	106.471
237.903	949.91	0.8104	0.0269	106.476
237.912	949.91	0.8103	0.0269	106.482
237.920	949.91	0.8102	0.0269	106.487
237.928	949.91	0.8101	0.0269	106.494
237.937	949.91	0.8100	0.0269	106.500
237.945	949.92	0.8099	0.0269	106.506
237.953	949.92	0.8098	0.0269	106.512
237.962	949.92	0.8097	0.0269	106.517
237.970	949.92	0.8096	0.0269	106.523
237.978	949.92	0.8095	0.0269	106.527
237.987	949.92	0.8095	0.0269	106.532
237.995	949.92	0.8094	0.0269	106.536
238.003	949.92	0.8094	0.0269	106.539
238.012	949.92	0.8093	0.0269	106.543
238.020	949.92	0.8093	0.0269	106.548
238.028	949.92	0.8092	0.0269	106.552
238.037	949.92	0.8092	0.0269	106.557
238.045	949.92	0.8091	0.0269	106.562
238.053	949.92	0.8091	0.0269	106.568
238.062	949.92	0.8090	0.0269	106.573
238.070	949.92	0.8090	0.0269	106.578
238.078	949.92	0.8089	0.0269	106.583
238.087	949.92	0.8089	0.0269	106.588
238.095	949.92	0.8089	0.0269	106.593
238.103	949.92	0.8089	0.0269	106.598
238.112	949.92	0.8088	0.0269	106.603
238.120	949.92	0.8088	0.0269	106.609
238.128	949.92	0.8088	0.0269	106.614
238.137	949.92	0.8087	0.0269	106.620
238.145	949.92	0.8087	0.0269	106.626
238.153	949.92	0.8086	0.0269	106.632
238.162	949.92	0.8086	0.0269	106.638
238.170	949.92	0.8085	0.0269	106.644
238.178	949.93	0.8084	0.0269	106.651
238.187	949.93	0.8084	0.0269	106.657
238.195	949.93	0.8083	0.0269	106.663
238.203	949.93	0.8083	0.0269	106.668
238.212	949.93	0.8082	0.0269	106.674
238.220	949.93	0.8081	0.0269	106.680
238.228	949.93	0.8081	0.0269	106.688
238.237	949.93	0.8080	0.0269	106.696
238.245	949.93	0.8079	0.0269	106.704
238.253	949.93	0.8078	0.0269	106.711
238.262	949.93	0.8077	0.0269	106.718
238.270	949.93	0.8076	0.0269	106.726
238.278	949.93	0.8075	0.0269	106.734
238.287	949.93	0.8074	0.0268	106.743
238.295	949.93	0.8073	0.0268	106.751
238.303	949.93	0.8072	0.0268	106.759
238.312	949.93	0.8071	0.0268	106.766
238.320	949.93	0.8071	0.0268	106.774
238.328	949.93	0.8070	0.0268	106.782
238.337	949.93	0.8069	0.0268	106.790
238.345	949.93	0.8069	0.0268	106.798
238.353	949.93	0.8068	0.0268	106.806
238.362	949.93	0.8067	0.0268	106.813
238.370	949.93	0.8067	0.0268	106.820
238.378	949.93	0.8067	0.0268	106.828
238.387	949.93	0.8066	0.0268	106.836
238.395	949.93	0.8066	0.0268	106.844
238.403	949.93	0.8066	0.0268	106.850
238.412	949.93	0.8066	0.0268	106.856
238.420	949.93	0.8065	0.0268	106.862
238.428	949.93	0.8065	0.0268	106.867
238.437	949.93	0.8064	0.0268	106.873
238.445	949.93	0.8064	0.0268	106.879
238.453	949.93	0.8064	0.0268	106.884
238.462	949.93	0.8064	0.0268	106.889
238.470	949.93	0.8063	0.0268	106.893
238.478	949.94	0.8063	0.0268	106.897
238.487	949.94	0.8062	0.0268	106.900
238.495	949.94	0.8061	0.0268	106.905
238.503	949.94	0.8061	0.0268	106.909
238.512	949.94	0.8060	0.0268	106.913
238.520	949.94	0.8060	0.0268	106.916
238.528	949.94	0.8059	0.0268	106.920
238.537	949.94	0.8058	0.0268	106.923
238.545	949.94	0.8057	0.0268	106.926
238.553	949.94	0.8056	0.0268	106.930
238.562	949.94	0.8056	0.0268	106.933
238.570	949.94	0.8055	0.0268	106.937
238.578	949.94	0.8054	0.0268	106.941
238.587	949.94	0.8054	0.0268	106.945
238.595	949.94	0.8053	0.0268	106.949
238.603	949.94	0.8053	0.0268	106.952
238.612	949.94	0.8052	0.0268	106.956
238.620	949.94	0.8051	0.0268	106.960
238.628	949.94	0.8051	0.0268	106.964
238.637	949.94	0.8050	0.0268	106.967
238.645	949.94	0.8049	0.0268	106.971
238.653	949.94	0.8048	0.0268	106.973
238.662	949.94	0.8047	0.0268	106.976
238.670	949.94	0.8046	0.0268	106.979
238.678	949.94	0.8045	0.0267	106.981
238.687	949.94	0.8044	0.0267	106.984
238.695	949.94	0.8043	0.0267	106.987
238.703	949.94	0.8042	0.0267	106.990
238.712	949.94	0.8041	0.0267	106.992
238.720	949.94	0.8040	0.0267	106.995
238.728	949.94	0.8039	0.0267	106.998
238.737	949.94	0.8038	0.0267	107.001
238.745	949.94	0.8038	0.0267	107.005
238.753	949.94	0.8037	0.0267	107.008
238.762	949.95	0.8036	0.0267	107.012
238.770	949.95	0.8036	0.0267	107.015
238.778	949.95	0.8035	0.0267	107.018
238.787	949.95	0.8034	0.0267	107.022
238.795	949.95	0.8033	0.0267	107.025
238.803	949.95	0.8032	0.0267	107.029
238.812	949.95	0.8032	0.0267	107.032
238.820	949.95	0.8031	0.0267	107.036
238.828	949.95	0.8030	0.0267	107.039
238.837	949.95	0.8030	0.0267	107.043
238.845	949.95	0.8029	0.0267	107.046
238.853	949.95	0.8028	0.0267	107.050
238.862	949.95	0.8028	0.0267	107.054
238.870	949.95	0.8027	0.0267	107.057
238.878	949.95	0.8026	0.0267	107.061
238.887	949.95	0.8025	0.0267	107.065
238.895	949.95	0.8024	0.0267	107.068
238.903	949.95	0.8023	0.0267	107.072
238.912	949.95	0.8023	0.0267	107.075
238.920	949.95	0.8022	0.0267	107.079
238.928	949.95	0.8021	0.0267	107.083
238.937	949.95	0.8020	0.0267	107.087
238.945	949.95	0.8019	0.0267	107.091
238.953	949.95	0.8019	0.0267	107.095
238.962	949.95	0.8018	0.0267	107.099
238.970	949.95	0.8017	0.0267	107.103
238.978	949.95	0.8017	0.0267	107.107
238.987	949.95	0.8016	0.0267	107.111
238.995	949.95	0.8016	0.0267	107.116
239.003	949.95	0.8015	0.0266	107.120
239.012	949.95	0.8014	0.0266	107.125
239.020	949.95	0.8014	0.0266	107.130
239.028	949.95	0.8013	0.0266	107.135
239.037	949.95	0.8012	0.0266	107.140
239.045	949.95	0.8012	0.0266	107.146
239.053	949.95	0.8012	0.0266	107.151
239.062	949.95	0.8011	0.0266	107.156
239.070	949.95	0.8011	0.0266	107.161
239.078	949.95	0.8010	0.0266	107.165
239.087	949.95	0.8009	0.0266	107.170
239.095	949.95	0.8009	0.0266	107.174
239.103	949.95	0.8008	0.0266	107.177
239.112	949.95	0.8007	0.0266	107.181
239.120	949.95	0.8007	0.0266	107.184
239.128	949.96	0.8006	0.0266	107.188
239.137	949.96	0.8005	0.0266	107.191
239.145	949.96	0.8004	0.0266	107.195
239.153	949.96	0.8003	0.0266	107.198
239.162	949.96	0.8003	0.0266	107.201
239.170	949.96	0.8002	0.0266	107.204
239.178	949.96	0.8001	0.0266	107.207
239.187	949.96	0.8000	0.0266	107.210
239.195	949.96	0.7999	0.0266	107.213
239.203	949.96	0.7998	0.0266	107.215
239.212	949.96	0.7996	0.0266	107.218
239.220	949.96	0.7995	0.0266	107.221
239.228	949.96	0.7994	0.0266	107.224
239.237	949.96	0.7993	0.0266	107.228
239.245	949.96	0.7992	0.0266	107.231
239.253	949.96	0.7991	0.0266	107.235
239.262	949.96	0.7991	0.0266	107.239
239.270	949.96	0.7990	0.0266	107.243
239.278	949.96	0.7989	0.0266	107.247
239.287	949.96	0.7988	0.0266	107.251
239.295	949.96	0.7987	0.0266	107.256
239.303	949.96	0.7986	0.0266	107.261
239.312	949.96	0.7984	0.0265	107.266
239.320	949.96	0.7983	0.0265	107.272
239.328	949.96	0.7982	0.0265	107.277
239.337	949.96	0.7980	0.0265	107.282
239.345	949.96	0.7979	0.0265	107.288
239.353	949.96	0.7978	0.0265	107.293
239.362	949.96	0.7976	0.0265	107.298
239.370	949.96	0.7975	0.0265	107.302
239.378	949.96	0.7974	0.0265	107.306
239.387	949.96	0.7973	0.0265	107.310
239.395	949.96	0.7973	0.0265	107.313
239.403	949.96	0.7972	0.0265	107.317
239.412	949.96	0.7972	0.0265	107.321
239.420	949.96	0.7971	0.0265	107.324
239.428	949.96	0.7971	0.0265	107.327
239.437	949.96	0.7970	0.0265	107.330
239.445	949.96	0.7970	0.0265	107.333
239.453	949.96	0.7969	0.0265	107.336
239.462	949.96	0.7969	0.0265	107.339
239.470	949.96	0.7968	0.0265	107.342
239.478	949.96	0.7967	0.0265	107.346
239.487	949.96	0.7966	0.0265	107.349
239.495	949.96	0.7965	0.0265	107.352
239.503	949.96	0.7964	0.0265	107.355
239.512	949.96	0.7963	0.0265	107.359
239.520	949.96	0.7962	0.0265	107.362
239.528	949.96	0.7961	0.0265	107.366
239.537	949.96	0.7960	0.0265	107.370
239.545	949.96	0.7959	0.0265	107.373
239.553	949.96	0.7958	0.0265	107.376
239.562	949.96	0.7957	0.0265	107.378
239.570	949.96	0.7956	0.0265	107.381
239.578	949.96	0.7955	0.0265	107.383
239.587	949.96	0.7955	0.0264	107.386
239.595	949.96	0.7954	0.0264	107.389
239.603	949.97	0.7953	0.0264	107.393
239.612	949.97	0.7952	0.0264	107.396
239.620	949.97	0.7951	0.0264	107.400
239.628	949.97	0.7950	0.0264	107.404
239.637	949.97	0.7949	0.0264	107.408
239.645	949.97	0.7949	0.0264	107.411
239.653	949.97	0.7948	0.0264	107.415
239.662	949.97	0.7948	0.0264	107.419
239.670	949.97	0.7947	0.0264	107.423
239.678	949.97	0.7947	0.0264	107.427
239.687	949.97	0.7947	0.0264	107.431
239.695	949.97	0.7946	0.0264	107.434
239.703	949.97	0.7946	0.0264	107.437
239.712	949.97	0.7946	0.0264	107.440
239.720	949.97	0.7946	0.0264	107.443
239.728	949.97	0.7945	0.0264	107.445
239.737	949.97	0.7944	0.0264	107.448
239.745	949.97	0.7944	0.0264	107.450
239.753	949.97	0.7943	0.0264	107.452
239.762	949.97	0.7942	0.0264	107.454
239.770	949.97	0.7942	0.0264	107.455
239.778	949.97	0.7941	0.0264	107.457
239.787	949.97	0.7940	0.0264	107.459
239.795	949.97	0.7939	0.0264	107.462
239.803	949.97	0.7939	0.0264	107.464
239.812	949.97	0.7938	0.0264	107.467
239.820	949.97	0.7937	0.0264	107.470
239.828	949.97	0.7936	0.0264	107.473
239.837	949.97	0.7935	0.0264	107.476
239.845	949.97	0.7934	0.0264	107.480
239.853	949.97	0.7933	0.0264	107.483
239.862	949.97	0.7932	0.0264	107.487
239.870	949.97	0.7931	0.0264	107.490
239.878	949.97	0.7930	0.0264	107.493
239.887	949.97	0.7929	0.0264	107.497
239.895	949.97	0.7928	0.0264	107.499
239.903	949.97	0.7927	0.0264	107.502
239.912	949.97	0.7926	0.0264	107.504
239.920	949.97	0.7925	0.0264	107.507
239.928	949.97	0.7925	0.0263	107.509
239.937	949.97	0.7924	0.0263	107.511
239.945	949.97	0.7923	0.0263	107.513
239.953	949.97	0.7923	0.0263	107.516
239.962	949.97	0.7922	0.0263	107.518
239.970	949.97	0.7921	0.0263	107.520
239.978	949.97	0.7920	0.0263	107.523
239.987	949.97	0.7919	0.0263	107.525
239.995	949.97	0.7918	0.0263	107.528
240.003	949.97	0.7917	0.0263	107.530
240.012	949.97	0.7916	0.0263	107.533
240.020	949.97	0.7915	0.0263	107.535
240.028	949.97	0.7914	0.0263	107.538
240.037	949.97	0.7913	0.0263	107.540
240.045	949.97	0.7912	0.0263	107.542
240.053	949.97	0.7911	0.0263	107.544
240.062	949.97	0.7910	0.0263	107.546
240.070	949.97	0.7909	0.0263	107.548
240.078	949.97	0.7908	0.0263	107.549
240.087	949.97	0.7908	0.0263	107.551
240.095	949.97	0.7907	0.0263	107.553
240.103	949.97	0.7907	0.0263	107.554
240.112	949.97	0.7906	0.0263	107.556
240.120	949.97	0.7906	0.0263	107.558
240.128	949.97	0.7905	0.0263	107.561
240.137	949.97	0.7905	0.0263	107.563
240.145	949.98	0.7904	0.0263	107.565
240.153	949.98	0.7904	0.0263	107.568
240.162	949.98	0.7903	0.0263	107.571
240.170	949.98	0.7902	0.0263	107.573
240.178	949.98	0.7901	0.0263	107.576
240.187	949.98	0.7900	0.0263	107.579
240.195	949.98	0.7899	0.0263	107.582
240.203	949.98	0.7898	0.0263	107.585
240.212	949.98	0.7896	0.0263	107.588
240.220	949.98	0.7895	0.0263	107.592
240.228	949.98	0.7894	0.0262	107.595
240.237	949.98	0.7893	0.0262	107.599
240.245	949.98	0.7892	0.0262	107.603
240.253	949.98	0.7891	0.0262	107.607
240.262	949.98	0.7890	0.0262	107.611
240.270	949.98	0.7890	0.0262	107.615
240.278	949.98	0.7889	0.0262	107.619
240.287	949.98	0.7888	0.0262	107.622
240.295	949.98	0.7888	0.0262	107.625
240.303	949.98	0.7888	0.0262	107.628
240.312	949.98	0.7887	0.0262	107.630
240.320	949.98	0.7887	0.0262	107.632
240.328	949.98	0.7886	0.0262	107.634
240.337	949.98	0.7886	0.0262	107.635
240.345	949.98	0.7885	0.0262	107.636
240.353	949.98	0.7884	0.0262	107.638
240.362	949.98	0.7883	0.0262	107.640
240.370	949.98	0.7883	0.0262	107.642
240.378	949.98	0.7882	0.0262	107.644
240.387	949.98	0.7881	0.0262	107.647
240.395	949.98	0.7881	0.0262	107.649
240.403	949.98	0.7880	0.0262	107.651
240.412	949.98	0.7879	0.0262	107.653
240.420	949.98	0.7878	0.0262	107.656
240.428	949.98	0.7878	0.0262	107.658
240.437	949.98	0.7877	0.0262	107.661
240.445	949.98	0.7876	0.0262	107.663
240.453	949.98	0.7875	0.0262	107.665
240.462	949.98	0.7874	0.0262	107.667
240.470	949.98	0.7874	0.0262	107.669
240.478	949.98	0.7873	0.0262	107.671
240.487	949.98	0.7872	0.0262	107.673
240.495	949.98	0.7871	0.0262	107.676
240.503	949.98	0.7871	0.0262	107.679
240.512	949.98	0.7870	0.0262	107.681
240.520	949.98	0.7870	0.0262	107.684
240.528	949.98	0.7869	0.0262	107.687
240.537	949.98	0.7868	0.0262	107.690
240.545	949.98	0.7868	0.0262	107.693
240.553	949.98	0.7867	0.0262	107.697
240.562	949.98	0.7866	0.0262	107.700
240.570	949.98	0.7865	0.0262	107.704
240.578	949.98	0.7864	0.0261	107.708
240.587	949.98	0.7863	0.0261	107.712
240.595	949.98	0.7862	0.0261	107.717
240.603	949.98	0.7861	0.0261	107.722
240.612	949.98	0.7860	0.0261	107.727
240.620	949.98	0.7859	0.0261	107.733
240.628	949.98	0.7858	0.0261	107.738
240.637	949.98	0.7857	0.0261	107.743
240.645	949.98	0.7856	0.0261	107.749
240.653	949.98	0.7855	0.0261	107.754
240.662	949.98	0.7854	0.0261	107.758
240.670	949.98	0.7854	0.0261	107.762
240.678	949.98	0.7854	0.0261	107.765
240.687	949.98	0.7853	0.0261	107.769
240.695	949.98	0.7853	0.0261	107.772
240.703	949.98	0.7853	0.0261	107.775
240.712	949.98	0.7852	0.0261	107.779
240.720	949.98	0.7852	0.0261	107.782
240.728	949.98	0.7852	0.0261	107.785
240.737	949.98	0.7852	0.0261	107.788
240.745	949.98	0.7851	0.0261	107.791
240.753	949.98	0.7851	0.0261	107.794
240.762	949.98	0.7851	0.0261	107.796
240.770	949.98	0.7850	0.0261	107.798
240.778	949.98	0.7850	0.0261	107.800
240.787	949.98	0.7849	0.0261	107.802
240.795	949.98	0.7849	0.0261	107.803
240.803	949.98	0.7849	0.0261	107.805
240.812	949.98	0.7848	0.0261	107.806
240.820	949.98	0.7847	0.0261	107.808
240.828	949.98	0.7847	0.0261	107.809
240.837	949.98	0.7846	0.0261	107.811
240.845	949.98	0.7845	0.0261	107.813
240.853	949.98	0.7844	0.0261	107.815
240.862	949.98	0.7843	0.0261	107.816
240.870	949.99	0.7842	0.0261	107.818
240.878	949.99	0.7840	0.0261	107.820
240.887	949.99	0.7839	0.0261	107.821
240.895	949.99	0.7838	0.0261	107.823
240.903	949.99	0.7837	0.0261	107.825
240.912	949.99	0.7836	0.0261	107.827
240.920	949.99	0.7835	0.0261	107.828
240.928	949.99	0.7834	0.0260	107.830
240.937	949.99	0.7833	0.0260	107.832
240.945	949.99	0.7832	0.0260	107.833
240.953	949.99	0.7831	0.0260	107.835
240.962	949.99	0.7830	0.0260	107.836
240.970	949.99	0.7829	0.0260	107.838
240.978	949.99	0.7827	0.0260	107.839
240.987	949.99	0.7826	0.0260	107.840
240.995	949.99	0.7826	0.0260	107.842
241.003	949.99	0.7825	0.0260	107.843
241.012	949.99	0.7824	0.0260	107.845
241.020	949.99	0.7823	0.0260	107.846
241.028	949.99	0.7821	0.0260	107.847
241.037	949.99	0.7820	0.0260	107.849
241.045	949.99	0.7819	0.0260	107.851
241.053	949.99	0.7818	0.0260	107.853
241.062	949.99	0.7817	0.0260	107.855
241.070	949.99	0.7816	0.0260	107.857
241.078	949.99	0.7815	0.0260	107.859
241.087	949.99	0.7814	0.0260	107.861
241.095	949.99	0.7814	0.0260	107.864
241.103	949.99	0.7813	0.0260	107.866
241.112	949.99	0.7812	0.0260	107.869
241.120	949.99	0.7812	0.0260	107.871
241.128	949.99	0.7811	0.0260	107.874
241.137	949.99	0.7810	0.0260	107.877
241.145	949.99	0.7810	0.0260	107.879
241.153	949.99	0.7809	0.0260	107.882
241.162	949.99	0.7809	0.0260	107.884
241.170	949.99	0.7808	0.0260	107.887
241.178	949.99	0.7807	0.0260	107.889
241.187	949.99	0.7807	0.0260	107.891
241.195	949.99	0.7806	0.0260	107.893
241.203	949.99	0.7806	0.0260	107.894
241.212	949.99	0.7805	0.0260	107.896
241.220	949.99	0.7804	0.0260	107.897
241.228	949.99	0.7804	0.0259	107.899
241.237	949.99	0.7803	0.0259	107.900
241.245	949.99	0.7803	0.0259	107.902
241.253	949.99	0.7802	0.0259	107.904
241.262	949.99	0.7801	0.0259	107.905
241.270	949.99	0.7800	0.0259	107.907
241.278	949.99	0.7800	0.0259	107.909
241.287	949.99	0.7799	0.0259	107.911
241.295	949.99	0.7798	0.0259	107.912
241.303	949.99	0.7797	0.0259	107.914
241.312	949.99	0.7796	0.0259	107.916
241.320	949.99	0.7795	0.0259	107.917
241.328	949.99	0.7794	0.0259	107.918
241.337	949.99	0.7793	0.0259	107.920
241.345	949.99	0.7791	0.0259	107.921
241.353	949.99	0.7790	0.0259	107.922
241.362	949.99	0.7789	0.0259	107.924
241.370	949.99	0.7787	0.0259	107.925
241.378	949.99	0.7786	0.0259	107.926
241.387	949.99	0.7785	0.0259	107.928
241.395	949.99	0.7784	0.0259	107.929
241.403	949.99	0.7782	0.0259	107.930
241.412	949.99	0.7781	0.0259	107.932
241.420	949.99	0.7780	0.0259	107.933
241.428	949.99	0.7779	0.0259	107.934
241.437	949.99	0.7778	0.0259	107.935
241.445	949.99	0.7778	0.0259	107.936
241.453	949.99	0.7777	0.0259	107.936
241.462	949.99	0.7776	0.0259	107.937
241.470	949.99	0.7775	0.0259	107.938
241.478	949.99	0.7775	0.0259	107.939
241.487	949.99	0.7774	0.0258	107.940
241.495	949.99	0.7773	0.0258	107.941
241.503	949.99	0.7772	0.0258	107.942
241.512	949.99	0.7771	0.0258	107.944
241.520	949.99	0.7770	0.0258	107.945
241.528	949.99	0.7770	0.0258	107.946
241.537	949.99	0.7769	0.0258	107.948
241.545	949.99	0.7768	0.0258	107.949
241.553	949.99	0.7768	0.0258	107.951
241.562	949.99	0.7767	0.0258	107.952
241.570	949.99	0.7766	0.0258	107.954
241.578	949.99	0.7766	0.0258	107.955
241.587	949.99	0.7765	0.0258	107.956
241.595	949.99	0.7765	0.0258	107.957
241.603	949.99	0.7764	0.0258	107.959
241.612	949.99	0.7763	0.0258	107.960
241.620	949.99	0.7762	0.0258	107.962
241.628	949.99	0.7761	0.0258	107.964
241.637	949.99	0.7760	0.0258	107.967
241.645	949.99	0.7759	0.0258	107.970
241.653	949.99	0.7759	0.0258	107.973
241.662	949.99	0.7757	0.0258	107.976
241.670	949.99	0.7756	0.0258	107.979
241.678	950.00	0.7755	0.0258	107.983
241.687		0.7754	0.0258
241.695		0.7754	0.0258
241.703		0.7753	0.0258
241.712		0.7752	0.0258
241.720		0.7751	0.0258