File: PSO Kinetics/data/softwood-50Kmin_3.txt
Filename	softwood-50Kmin_3
Instrument name	0650-0369 (192.168.1.2)
Operator	ca527
rundate	1/8/2023
Sample name	softwood-50Kmin_3
proceduresegments	Select Gas: Gas 1 ; Ramp 10.00 °C/min to 110.00 °C; Isothermal 30.0 min; Ramp 50.00 °C/min to 900.00 °C; Isothermal 30.0 min; Select Gas: Gas 2 ; Ramp 10.00 °C/min to 950.00 °C; Isothermal 10.0 min; Data Off ; Equilibrate 30.00 °C
[step]
Ramp 10.00 °C/min to 110.00 °C
Time	Temperature	Weight	Weight	Heat Flow
min	°C	%	mg	mW
0.003		100.0373	4.4117
0.012		100.1030	4.4146
0.020		100.1658	4.4174
0.028		100.2205	4.4198
0.037		100.2686	4.4219
0.045	22.71	100.3097	4.4237	-27.241
0.053	22.74	100.3434	4.4252	-27.207
0.062	22.78	100.3698	4.4264	-27.178
0.070	22.81	100.3897	4.4273	-27.153
0.078	22.85	100.4046	4.4279	-27.130
0.087	22.88	100.4144	4.4284	-27.106
0.095	22.92	100.4210	4.4287	-27.084
0.103	22.95	100.4253	4.4288	-27.062
0.112	22.98	100.4283	4.4290	-27.041
0.120	23.02	100.4308	4.4291	-27.021
0.128	23.05	100.4330	4.4292	-27.001
0.137	23.08	100.4350	4.4293	-26.980
0.145	23.12	100.4368	4.4294	-26.961
0.153	23.15	100.4385	4.4294	-26.940
0.162	23.18	100.4400	4.4295	-26.919
0.170	23.22	100.4414	4.4296	-26.898
0.178	23.25	100.4426	4.4296	-26.877
0.187	23.28	100.4438	4.4297	-26.856
0.195	23.32	100.4448	4.4297	-26.835
0.203	23.35	100.4457	4.4297	-26.813
0.212	23.38	100.4464	4.4298	-26.792
0.220	23.41	100.4471	4.4298	-26.771
0.228	23.44	100.4476	4.4298	-26.751
0.237	23.48	100.4481	4.4298	-26.732
0.245	23.51	100.4484	4.4299	-26.713
0.253	23.54	100.4486	4.4299	-26.694
0.262	23.57	100.4487	4.4299	-26.675
0.270	23.60	100.4486	4.4299	-26.656
0.278	23.64	100.4484	4.4299	-26.638
0.287	23.67	100.4481	4.4299	-26.621
0.295	23.70	100.4477	4.4298	-26.603
0.303	23.73	100.4472	4.4298	-26.584
0.312	23.76	100.4465	4.4298	-26.566
0.320	23.80	100.4457	4.4297	-26.548
0.328	23.83	100.4448	4.4297	-26.531
0.337	23.86	100.4438	4.4297	-26.513
0.345	23.89	100.4426	4.4296	-26.496
0.353	23.92	100.4414	4.4296	-26.478
0.362	23.95	100.4400	4.4295	-26.460
0.370	23.99	100.4386	4.4294	-26.442
0.378	24.02	100.4371	4.4294	-26.424
0.387	24.05	100.4354	4.4293	-26.406
0.395	24.08	100.4336	4.4292	-26.389
0.403	24.12	100.4317	4.4291	-26.371
0.412	24.15	100.4297	4.4290	-26.354
0.420	24.18	100.4276	4.4289	-26.337
0.428	24.22	100.4254	4.4289	-26.320
0.437	24.25	100.4231	4.4287	-26.303
0.445	24.28	100.4207	4.4286	-26.288
0.453	24.31	100.4182	4.4285	-26.273
0.462	24.35	100.4155	4.4284	-26.258
0.470	24.38	100.4127	4.4283	-26.244
0.478	24.42	100.4099	4.4282	-26.230
0.487	24.45	100.4069	4.4280	-26.217
0.495	24.49	100.4038	4.4279	-26.204
0.503	24.52	100.4006	4.4278	-26.192
0.512	24.56	100.3972	4.4276	-26.179
0.520	24.59	100.3938	4.4275	-26.167
0.528	24.63	100.3902	4.4273	-26.156
0.537	24.67	100.3866	4.4271	-26.145
0.545	24.70	100.3828	4.4270	-26.134
0.553	24.74	100.3790	4.4268	-26.124
0.562	24.78	100.3751	4.4266	-26.113
0.570	24.82	100.3711	4.4265	-26.102
0.578	24.86	100.3671	4.4263	-26.091
0.587	24.89	100.3630	4.4261	-26.081
0.595	24.93	100.3588	4.4259	-26.072
0.603	24.97	100.3545	4.4257	-26.064
0.612	25.01	100.3502	4.4255	-26.056
0.620	25.05	100.3459	4.4253	-26.048
0.628	25.09	100.3415	4.4252	-26.041
0.637	25.14	100.3371	4.4250	-26.035
0.645	25.18	100.3327	4.4248	-26.030
0.653	25.22	100.3282	4.4246	-26.026
0.662	25.26	100.3237	4.4244	-26.022
0.670	25.30	100.3192	4.4242	-26.018
0.678	25.35	100.3147	4.4240	-26.014
0.687	25.39	100.3102	4.4238	-26.009
0.695	25.43	100.3057	4.4236	-26.004
0.703	25.48	100.3011	4.4234	-26.000
0.712	25.52	100.2967	4.4232	-25.995
0.720	25.57	100.2922	4.4230	-25.989
0.728	25.61	100.2878	4.4228	-25.984
0.737	25.66	100.2833	4.4226	-25.979
0.745	25.71	100.2790	4.4224	-25.974
0.753	25.75	100.2746	4.4222	-25.969
0.762	25.80	100.2703	4.4220	-25.965
0.770	25.85	100.2660	4.4218	-25.960
0.778	25.90	100.2618	4.4216	-25.956
0.787	25.94	100.2576	4.4214	-25.952
0.795	25.99	100.2534	4.4213	-25.947
0.803	26.04	100.2493	4.4211	-25.943
0.812	26.09	100.2453	4.4209	-25.938
0.820	26.14	100.2412	4.4207	-25.932
0.828	26.19	100.2373	4.4206	-25.926
0.837	26.25	100.2334	4.4204	-25.920
0.845	26.30	100.2295	4.4202	-25.913
0.853	26.35	100.2257	4.4200	-25.907
0.862	26.40	100.2220	4.4199	-25.900
0.870	26.46	100.2183	4.4197	-25.894
0.878	26.51	100.2147	4.4196	-25.886
0.887	26.56	100.2111	4.4194	-25.878
0.895	26.62	100.2076	4.4192	-25.869
0.903	26.67	100.2041	4.4191	-25.860
0.912	26.73	100.2007	4.4189	-25.851
0.920	26.78	100.1973	4.4188	-25.841
0.928	26.84	100.1940	4.4186	-25.830
0.937	26.90	100.1907	4.4185	-25.819
0.945	26.96	100.1875	4.4184	-25.807
0.953	27.01	100.1843	4.4182	-25.794
0.962	27.07	100.1811	4.4181	-25.781
0.970	27.13	100.1780	4.4179	-25.768
0.978	27.19	100.1749	4.4178	-25.754
0.987	27.25	100.1719	4.4177	-25.740
0.995	27.31	100.1689	4.4175	-25.724
1.003	27.37	100.1659	4.4174	-25.707
1.012	27.43	100.1630	4.4173	-25.690
1.020	27.49	100.1601	4.4172	-25.671
1.028	27.56	100.1573	4.4170	-25.653
1.037	27.62	100.1545	4.4169	-25.633
1.045	27.68	100.1517	4.4168	-25.613
1.053	27.74	100.1490	4.4167	-25.594
1.062	27.81	100.1463	4.4165	-25.573
1.070	27.87	100.1436	4.4164	-25.551
1.078	27.94	100.1409	4.4163	-25.531
1.087	28.00	100.1383	4.4162	-25.509
1.095	28.07	100.1357	4.4161	-25.487
1.103	28.13	100.1330	4.4160	-25.464
1.112	28.20	100.1304	4.4158	-25.439
1.120	28.27	100.1278	4.4157	-25.414
1.128	28.34	100.1252	4.4156	-25.388
1.137	28.40	100.1226	4.4155	-25.360
1.145	28.47	100.1200	4.4154	-25.331
1.153	28.54	100.1173	4.4153	-25.303
1.162	28.61	100.1147	4.4151	-25.273
1.170	28.68	100.1121	4.4150	-25.243
1.178	28.75	100.1095	4.4149	-25.210
1.187	28.82	100.1069	4.4148	-25.179
1.195	28.89	100.1043	4.4147	-25.148
1.203	28.97	100.1017	4.4146	-25.114
1.212	29.04	100.0991	4.4145	-25.080
1.220	29.11	100.0964	4.4143	-25.045
1.228	29.18	100.0938	4.4142	-25.011
1.237	29.25	100.0912	4.4141	-24.975
1.245	29.33	100.0885	4.4140	-24.940
1.253	29.40	100.0859	4.4139	-24.905
1.262	29.48	100.0832	4.4138	-24.870
1.270	29.55	100.0806	4.4136	-24.832
1.278	29.62	100.0779	4.4135	-24.795
1.287	29.70	100.0752	4.4134	-24.757
1.295	29.78	100.0725	4.4133	-24.719
1.303	29.85	100.0698	4.4132	-24.681
1.312	29.93	100.0671	4.4130	-24.641
1.320	30.00	100.0643	4.4129	-24.601
1.328	30.08	100.0615	4.4128	-24.559
1.337	30.16	100.0587	4.4127	-24.516
1.345	30.24	100.0558	4.4126	-24.473
1.353	30.32	100.0530	4.4124	-24.431
1.362	30.39	100.0501	4.4123	-24.388
1.370	30.47	100.0472	4.4122	-24.346
1.378	30.55	100.0442	4.4120	-24.301
1.387	30.63	100.0413	4.4119	-24.257
1.395	30.71	100.0383	4.4118	-24.212
1.403	30.79	100.0353	4.4116	-24.168
1.412	30.87	100.0323	4.4115	-24.123
1.420	30.95	100.0293	4.4114	-24.078
1.428	31.03	100.0263	4.4112	-24.033
1.437	31.11	100.0232	4.4111	-23.986
1.445	31.20	100.0201	4.4110	-23.938
1.453	31.28	100.0170	4.4108	-23.890
1.462	31.36	100.0139	4.4107	-23.843
1.470	31.44	100.0108	4.4106	-23.795
1.478	31.52	100.0076	4.4104	-23.746
1.487	31.61	100.0044	4.4103	-23.696
1.495	31.69	100.0012	4.4101	-23.646
1.503	31.77	99.9980	4.4100	-23.594
1.512	31.86	99.9947	4.4099	-23.544
1.520	31.94	99.9915	4.4097	-23.494
1.528	32.03	99.9882	4.4096	-23.442
1.537	32.11	99.9849	4.4094	-23.391
1.545	32.20	99.9816	4.4093	-23.339
1.553	32.28	99.9782	4.4091	-23.287
1.562	32.37	99.9749	4.4090	-23.235
1.570	32.45	99.9715	4.4088	-23.181
1.578	32.54	99.9681	4.4087	-23.127
1.587	32.62	99.9647	4.4085	-23.074
1.595	32.71	99.9613	4.4084	-23.019
1.603	32.80	99.9579	4.4082	-22.964
1.612	32.88	99.9544	4.4081	-22.910
1.620	32.97	99.9510	4.4079	-22.856
1.628	33.06	99.9474	4.4078	-22.801
1.637	33.14	99.9439	4.4076	-22.745
1.645	33.23	99.9404	4.4075	-22.689
1.653	33.32	99.9368	4.4073	-22.633
1.662	33.41	99.9333	4.4071	-22.578
1.670	33.50	99.9297	4.4070	-22.521
1.678	33.58	99.9261	4.4068	-22.465
1.687	33.67	99.9225	4.4067	-22.408
1.695	33.76	99.9189	4.4065	-22.351
1.703	33.85	99.9152	4.4064	-22.292
1.712	33.94	99.9116	4.4062	-22.234
1.720	34.03	99.9079	4.4060	-22.176
1.728	34.11	99.9043	4.4059	-22.118
1.737	34.20	99.9006	4.4057	-22.060
1.745	34.29	99.8969	4.4055	-22.001
1.753	34.38	99.8931	4.4054	-21.942
1.762	34.47	99.8894	4.4052	-21.882
1.770	34.56	99.8856	4.4050	-21.822
1.778	34.65	99.8818	4.4049	-21.762
1.787	34.75	99.8780	4.4047	-21.702
1.795	34.84	99.8742	4.4045	-21.640
1.803	34.93	99.8703	4.4044	-21.580
1.812	35.02	99.8664	4.4042	-21.520
1.820	35.11	99.8625	4.4040	-21.459
1.828	35.20	99.8586	4.4039	-21.398
1.837	35.29	99.8546	4.4037	-21.336
1.845	35.38	99.8506	4.4035	-21.275
1.853	35.47	99.8467	4.4033	-21.214
1.862	35.57	99.8427	4.4032	-21.152
1.870	35.66	99.8387	4.4030	-21.090
1.878	35.75	99.8347	4.4028	-21.028
1.887	35.84	99.8307	4.4026	-20.965
1.895	35.93	99.8267	4.4024	-20.900
1.903	36.02	99.8227	4.4023	-20.839
1.912	36.12	99.8186	4.4021	-20.776
1.920	36.21	99.8145	4.4019	-20.714
1.928	36.30	99.8105	4.4017	-20.651
1.937	36.39	99.8063	4.4015	-20.586
1.945	36.49	99.8022	4.4014	-20.522
1.953	36.58	99.7981	4.4012	-20.458
1.962	36.67	99.7939	4.4010	-20.393
1.970	36.77	99.7897	4.4008	-20.329
1.978	36.86	99.7855	4.4006	-20.265
1.987	36.95	99.7813	4.4004	-20.199
1.995	37.04	99.7771	4.4003	-20.133
2.003	37.14	99.7728	4.4001	-20.067
2.012	37.23	99.7686	4.3999	-20.001
2.020	37.32	99.7643	4.3997	-19.936
2.028	37.42	99.7600	4.3995	-19.870
2.037	37.51	99.7557	4.3993	-19.805
2.045	37.60	99.7513	4.3991	-19.740
2.053	37.70	99.7469	4.3989	-19.674
2.062	37.79	99.7426	4.3987	-19.609
2.070	37.88	99.7382	4.3985	-19.544
2.078	37.98	99.7338	4.3983	-19.477
2.087	38.07	99.7293	4.3982	-19.412
2.095	38.16	99.7249	4.3980	-19.347
2.103	38.26	99.7204	4.3978	-19.281
2.112	38.35	99.7160	4.3976	-19.216
2.120	38.45	99.7115	4.3974	-19.150
2.128	38.54	99.7070	4.3972	-19.084
2.137	38.63	99.7024	4.3970	-19.018
2.145	38.73	99.6978	4.3968	-18.952
2.153	38.82	99.6932	4.3966	-18.886
2.162	38.91	99.6886	4.3964	-18.820
2.170	39.01	99.6840	4.3962	-18.754
2.178	39.10	99.6793	4.3959	-18.688
2.187	39.20	99.6746	4.3957	-18.621
2.195	39.29	99.6699	4.3955	-18.555
2.203	39.38	99.6652	4.3953	-18.488
2.212	39.48	99.6605	4.3951	-18.422
2.220	39.57	99.6557	4.3949	-18.355
2.228	39.67	99.6509	4.3947	-18.288
2.237	39.76	99.6461	4.3945	-18.221
2.245	39.85	99.6413	4.3943	-18.155
2.253	39.95	99.6365	4.3941	-18.088
2.262	40.04	99.6317	4.3938	-18.021
2.270	40.14	99.6269	4.3936	-17.954
2.278	40.23	99.6220	4.3934	-17.887
2.287	40.32	99.6172	4.3932	-17.820
2.295	40.42	99.6123	4.3930	-17.754
2.303	40.51	99.6075	4.3928	-17.687
2.312	40.60	99.6026	4.3926	-17.621
2.320	40.70	99.5977	4.3923	-17.554
2.328	40.79	99.5928	4.3921	-17.488
2.337	40.89	99.5879	4.3919	-17.421
2.345	40.98	99.5829	4.3917	-17.355
2.353	41.07	99.5779	4.3915	-17.288
2.362	41.17	99.5729	4.3913	-17.222
2.370	41.26	99.5679	4.3910	-17.154
2.378	41.35	99.5629	4.3908	-17.087
2.387	41.45	99.5578	4.3906	-17.020
2.395	41.54	99.5528	4.3904	-16.953
2.403	41.64	99.5477	4.3901	-16.886
2.412	41.73	99.5426	4.3899	-16.819
2.420	41.82	99.5375	4.3897	-16.752
2.428	41.92	99.5323	4.3895	-16.686
2.437	42.01	99.5272	4.3892	-16.618
2.445	42.10	99.5221	4.3890	-16.550
2.453	42.20	99.5169	4.3888	-16.483
2.462	42.29	99.5117	4.3886	-16.416
2.470	42.38	99.5065	4.3883	-16.349
2.478	42.48	99.5013	4.3881	-16.281
2.487	42.57	99.4960	4.3879	-16.215
2.495	42.66	99.4907	4.3876	-16.148
2.503	42.76	99.4854	4.3874	-16.080
2.512	42.85	99.4801	4.3872	-16.013
2.520	42.94	99.4747	4.3869	-15.947
2.528	43.04	99.4694	4.3867	-15.881
2.537	43.13	99.4640	4.3864	-15.814
2.545	43.23	99.4586	4.3862	-15.747
2.553	43.32	99.4532	4.3860	-15.681
2.562	43.41	99.4478	4.3857	-15.616
2.570	43.50	99.4423	4.3855	-15.550
2.578	43.60	99.4369	4.3853	-15.484
2.587	43.69	99.4315	4.3850	-15.418
2.595	43.78	99.4260	4.3848	-15.353
2.603	43.87	99.4205	4.3845	-15.286
2.612	43.97	99.4150	4.3843	-15.220
2.620	44.06	99.4094	4.3840	-15.153
2.628	44.15	99.4039	4.3838	-15.088
2.637	44.24	99.3983	4.3836	-15.023
2.645	44.34	99.3927	4.3833	-14.958
2.653	44.43	99.3872	4.3831	-14.891
2.662	44.52	99.3815	4.3828	-14.825
2.670	44.62	99.3759	4.3826	-14.760
2.678	44.71	99.3703	4.3823	-14.695
2.687	44.80	99.3646	4.3821	-14.630
2.695	44.89	99.3589	4.3818	-14.566
2.703	44.98	99.3532	4.3816	-14.503
2.712	45.08	99.3475	4.3813	-14.437
2.720	45.17	99.3417	4.3811	-14.372
2.728	45.26	99.3359	4.3808	-14.307
2.737	45.35	99.3301	4.3805	-14.243
2.745	45.44	99.3243	4.3803	-14.179
2.753	45.53	99.3185	4.3800	-14.114
2.762	45.63	99.3126	4.3798	-14.049
2.770	45.72	99.3068	4.3795	-13.983
2.778	45.81	99.3009	4.3793	-13.919
2.787	45.90	99.2950	4.3790	-13.854
2.795	45.99	99.2890	4.3787	-13.790
2.803	46.08	99.2831	4.3785	-13.726
2.812	46.18	99.2772	4.3782	-13.663
2.820	46.27	99.2712	4.3779	-13.601
2.828	46.36	99.2652	4.3777	-13.536
2.837	46.45	99.2592	4.3774	-13.472
2.845	46.54	99.2532	4.3772	-13.410
2.853	46.63	99.2472	4.3769	-13.347
2.862	46.72	99.2411	4.3766	-13.285
2.870	46.81	99.2351	4.3764	-13.224
2.878	46.90	99.2290	4.3761	-13.162
2.887	46.99	99.2229	4.3758	-13.100
2.895	47.08	99.2168	4.3756	-13.038
2.903	47.17	99.2107	4.3753	-12.975
2.912	47.27	99.2046	4.3750	-12.913
2.920	47.36	99.1984	4.3747	-12.851
2.928	47.45	99.1923	4.3745	-12.789
2.937	47.54	99.1861	4.3742	-12.728
2.945	47.63	99.1799	4.3739	-12.665
2.953	47.72	99.1737	4.3736	-12.603
2.962	47.81	99.1674	4.3734	-12.540
2.970	47.90	99.1612	4.3731	-12.478
2.978	47.99	99.1549	4.3728	-12.414
2.987	48.08	99.1487	4.3725	-12.352
2.995	48.17	99.1424	4.3723	-12.291
3.003	48.26	99.1361	4.3720	-12.229
3.012	48.35	99.1298	4.3717	-12.168
3.020	48.44	99.1235	4.3714	-12.107
3.028	48.53	99.1172	4.3712	-12.047
3.037	48.62	99.1109	4.3709	-11.987
3.045	48.71	99.1045	4.3706	-11.927
3.053	48.80	99.0982	4.3703	-11.866
3.062	48.89	99.0918	4.3700	-11.807
3.070	48.98	99.0854	4.3698	-11.747
3.078	49.06	99.0790	4.3695	-11.687
3.087	49.15	99.0726	4.3692	-11.628
3.095	49.24	99.0662	4.3689	-11.568
3.103	49.33	99.0597	4.3686	-11.509
3.112	49.42	99.0533	4.3683	-11.449
3.120	49.51	99.0468	4.3681	-11.389
3.128	49.60	99.0403	4.3678	-11.330
3.137	49.69	99.0339	4.3675	-11.271
3.145	49.78	99.0274	4.3672	-11.211
3.153	49.86	99.0209	4.3669	-11.152
3.162	49.95	99.0144	4.3666	-11.095
3.170	50.04	99.0079	4.3663	-11.036
3.178	50.13	99.0013	4.3660	-10.977
3.187	50.22	98.9948	4.3658	-10.919
3.195	50.31	98.9883	4.3655	-10.860
3.203	50.39	98.9817	4.3652	-10.801
3.212	50.48	98.9751	4.3649	-10.743
3.220	50.57	98.9686	4.3646	-10.686
3.228	50.66	98.9620	4.3643	-10.628
3.237	50.75	98.9554	4.3640	-10.571
3.245	50.84	98.9488	4.3637	-10.513
3.253	50.93	98.9422	4.3634	-10.456
3.262	51.01	98.9355	4.3631	-10.400
3.270	51.10	98.9289	4.3629	-10.343
3.278	51.19	98.9223	4.3626	-10.287
3.287	51.28	98.9156	4.3623	-10.231
3.295	51.37	98.9089	4.3620	-10.175
3.303	51.45	98.9023	4.3617	-10.119
3.312	51.54	98.8956	4.3614	-10.063
3.320	51.63	98.8889	4.3611	-10.007
3.328	51.72	98.8822	4.3608	-9.951
3.337	51.80	98.8755	4.3605	-9.895
3.345	51.89	98.8688	4.3602	-9.839
3.353	51.98	98.8621	4.3599	-9.783
3.362	52.06	98.8554	4.3596	-9.728
3.370	52.15	98.8487	4.3593	-9.673
3.378	52.24	98.8419	4.3590	-9.618
3.387	52.33	98.8352	4.3587	-9.562
3.395	52.41	98.8285	4.3584	-9.508
3.403	52.50	98.8217	4.3581	-9.452
3.412	52.59	98.8150	4.3578	-9.397
3.420	52.68	98.8083	4.3575	-9.343
3.428	52.76	98.8015	4.3572	-9.288
3.437	52.85	98.7948	4.3569	-9.234
3.445	52.94	98.7880	4.3566	-9.179
3.453	53.02	98.7813	4.3563	-9.124
3.462	53.11	98.7745	4.3560	-9.070
3.470	53.20	98.7677	4.3557	-9.017
3.478	53.28	98.7610	4.3554	-8.964
3.487	53.37	98.7542	4.3551	-8.911
3.495	53.46	98.7474	4.3548	-8.858
3.503	53.54	98.7406	4.3545	-8.804
3.512	53.63	98.7338	4.3542	-8.751
3.520	53.72	98.7270	4.3539	-8.698
3.528	53.80	98.7202	4.3536	-8.645
3.537	53.89	98.7134	4.3533	-8.593
3.545	53.98	98.7066	4.3530	-8.541
3.553	54.06	98.6998	4.3527	-8.487
3.562	54.15	98.6930	4.3524	-8.434
3.570	54.24	98.6862	4.3521	-8.381
3.578	54.32	98.6793	4.3518	-8.329
3.587	54.41	98.6725	4.3515	-8.277
3.595	54.50	98.6656	4.3512	-8.226
3.603	54.58	98.6588	4.3509	-8.174
3.612	54.67	98.6519	4.3506	-8.121
3.620	54.76	98.6450	4.3503	-8.068
3.628	54.84	98.6382	4.3500	-8.016
3.637	54.93	98.6313	4.3497	-7.965
3.645	55.01	98.6245	4.3494	-7.913
3.653	55.10	98.6177	4.3491	-7.861
3.662	55.18	98.6108	4.3488	-7.809
3.670	55.27	98.6040	4.3485	-7.758
3.678	55.36	98.5972	4.3482	-7.707
3.687	55.44	98.5904	4.3479	-7.655
3.695	55.53	98.5836	4.3476	-7.605
3.703	55.61	98.5767	4.3473	-7.556
3.712	55.70	98.5699	4.3470	-7.505
3.720	55.78	98.5631	4.3467	-7.455
3.728	55.87	98.5562	4.3464	-7.406
3.737	55.96	98.5494	4.3461	-7.357
3.745	56.04	98.5425	4.3458	-7.308
3.753	56.13	98.5357	4.3455	-7.258
3.762	56.21	98.5288	4.3452	-7.208
3.770	56.30	98.5220	4.3449	-7.159
3.778	56.38	98.5151	4.3446	-7.109
3.787	56.47	98.5083	4.3443	-7.059
3.795	56.56	98.5015	4.3440	-7.010
3.803	56.64	98.4947	4.3437	-6.961
3.812	56.73	98.4879	4.3434	-6.912
3.820	56.81	98.4811	4.3431	-6.862
3.828	56.90	98.4743	4.3428	-6.812
3.837	56.98	98.4675	4.3425	-6.763
3.845	57.07	98.4608	4.3422	-6.713
3.853	57.15	98.4540	4.3419	-6.664
3.862	57.24	98.4473	4.3416	-6.616
3.870	57.33	98.4405	4.3413	-6.567
3.878	57.41	98.4338	4.3410	-6.519
3.887	57.50	98.4271	4.3407	-6.470
3.895	57.58	98.4203	4.3404	-6.421
3.903	57.67	98.4136	4.3401	-6.373
3.912	57.75	98.4069	4.3398	-6.326
3.920	57.84	98.4001	4.3395	-6.278
3.928	57.92	98.3934	4.3392	-6.231
3.937	58.01	98.3867	4.3389	-6.184
3.945	58.09	98.3800	4.3386	-6.136
3.953	58.18	98.3732	4.3383	-6.089
3.962	58.26	98.3665	4.3381	-6.041
3.970	58.35	98.3598	4.3378	-5.993
3.978	58.43	98.3530	4.3375	-5.946
3.987	58.52	98.3463	4.3372	-5.898
3.995	58.60	98.3396	4.3369	-5.851
4.003	58.69	98.3329	4.3366	-5.803
4.012	58.78	98.3262	4.3363	-5.755
4.020	58.86	98.3195	4.3360	-5.708
4.028	58.95	98.3128	4.3357	-5.661
4.037	59.03	98.3061	4.3354	-5.615
4.045	59.12	98.2994	4.3351	-5.569
4.053	59.20	98.2927	4.3348	-5.524
4.062	59.29	98.2861	4.3345	-5.478
4.070	59.37	98.2795	4.3342	-5.432
4.078	59.46	98.2728	4.3339	-5.386
4.087	59.54	98.2662	4.3336	-5.341
4.095	59.62	98.2596	4.3333	-5.297
4.103	59.71	98.2530	4.3330	-5.253
4.112	59.80	98.2464	4.3328	-5.208
4.120	59.88	98.2398	4.3325	-5.162
4.128	59.97	98.2332	4.3322	-5.117
4.137	60.05	98.2266	4.3319	-5.072
4.145	60.14	98.2201	4.3316	-5.027
4.153	60.22	98.2135	4.3313	-4.982
4.162	60.31	98.2070	4.3310	-4.937
4.170	60.39	98.2004	4.3307	-4.892
4.178	60.48	98.1939	4.3304	-4.846
4.187	60.56	98.1874	4.3302	-4.800
4.195	60.65	98.1809	4.3299	-4.755
4.203	60.73	98.1744	4.3296	-4.710
4.212	60.82	98.1680	4.3293	-4.665
4.220	60.90	98.1615	4.3290	-4.620
4.228	60.99	98.1551	4.3287	-4.575
4.237	61.07	98.1486	4.3284	-4.529
4.245	61.16	98.1422	4.3282	-4.485
4.253	61.24	98.1358	4.3279	-4.442
4.262	61.32	98.1294	4.3276	-4.399
4.270	61.41	98.1230	4.3273	-4.357
4.278	61.49	98.1167	4.3270	-4.314
4.287	61.58	98.1103	4.3268	-4.271
4.295	61.66	98.1039	4.3265	-4.228
4.303	61.75	98.0976	4.3262	-4.186
4.312	61.83	98.0913	4.3259	-4.143
4.320	61.92	98.0850	4.3256	-4.100
4.328	62.00	98.0787	4.3254	-4.058
4.337	62.09	98.0724	4.3251	-4.014
4.345	62.17	98.0662	4.3248	-3.971
4.353	62.26	98.0600	4.3245	-3.927
4.362	62.34	98.0538	4.3243	-3.883
4.370	62.43	98.0476	4.3240	-3.839
4.378	62.51	98.0414	4.3237	-3.796
4.387	62.60	98.0353	4.3234	-3.754
4.395	62.68	98.0292	4.3232	-3.711
4.403	62.77	98.0230	4.3229	-3.670
4.412	62.85	98.0169	4.3226	-3.627
4.420	62.94	98.0108	4.3224	-3.585
4.428	63.02	98.0047	4.3221	-3.542
4.437	63.11	97.9986	4.3218	-3.501
4.445	63.19	97.9925	4.3216	-3.461
4.453	63.28	97.9865	4.3213	-3.420
4.462	63.36	97.9804	4.3210	-3.378
4.470	63.45	97.9744	4.3208	-3.336
4.478	63.53	97.9684	4.3205	-3.294
4.487	63.62	97.9624	4.3202	-3.254
4.495	63.70	97.9564	4.3200	-3.214
4.503	63.79	97.9505	4.3197	-3.173
4.512	63.87	97.9445	4.3194	-3.133
4.520	63.96	97.9386	4.3192	-3.092
4.528	64.04	97.9327	4.3189	-3.051
4.537	64.13	97.9268	4.3187	-3.010
4.545	64.22	97.9209	4.3184	-2.969
4.553	64.30	97.9150	4.3181	-2.929
4.562	64.39	97.9092	4.3179	-2.889
4.570	64.47	97.9033	4.3176	-2.847
4.578	64.56	97.8975	4.3174	-2.806
4.587	64.64	97.8917	4.3171	-2.765
4.595	64.73	97.8859	4.3169	-2.724
4.603	64.81	97.8802	4.3166	-2.683
4.612	64.89	97.8744	4.3163	-2.642
4.620	64.98	97.8687	4.3161	-2.602
4.628	65.07	97.8630	4.3158	-2.561
4.637	65.15	97.8573	4.3156	-2.520
4.645	65.24	97.8516	4.3153	-2.479
4.653	65.32	97.8459	4.3151	-2.439
4.662	65.41	97.8402	4.3148	-2.400
4.670	65.49	97.8346	4.3146	-2.362
4.678	65.58	97.8290	4.3143	-2.323
4.687	65.66	97.8233	4.3141	-2.284
4.695	65.75	97.8177	4.3138	-2.244
4.703	65.83	97.8122	4.3136	-2.204
4.712	65.92	97.8066	4.3134	-2.165
4.720	66.00	97.8011	4.3131	-2.126
4.728	66.09	97.7956	4.3129	-2.086
4.737	66.17	97.7901	4.3126	-2.046
4.745	66.26	97.7846	4.3124	-2.007
4.753	66.34	97.7792	4.3121	-1.968
4.762	66.43	97.7738	4.3119	-1.929
4.770	66.51	97.7684	4.3117	-1.890
4.778	66.60	97.7630	4.3114	-1.851
4.787	66.68	97.7577	4.3112	-1.813
4.795	66.77	97.7524	4.3110	-1.774
4.803	66.86	97.7471	4.3107	-1.736
4.812	66.94	97.7419	4.3105	-1.699
4.820	67.03	97.7366	4.3103	-1.661
4.828	67.11	97.7315	4.3100	-1.623
4.837	67.20	97.7263	4.3098	-1.585
4.845	67.28	97.7211	4.3096	-1.547
4.853	67.37	97.7159	4.3094	-1.509
4.862	67.45	97.7108	4.3091	-1.471
4.870	67.54	97.7056	4.3089	-1.434
4.878	67.62	97.7005	4.3087	-1.397
4.887	67.71	97.6954	4.3085	-1.360
4.895	67.79	97.6903	4.3082	-1.322
4.903	67.88	97.6852	4.3080	-1.285
4.912	67.96	97.6801	4.3078	-1.246
4.920	68.05	97.6750	4.3076	-1.209
4.928	68.14	97.6700	4.3073	-1.171
4.937	68.22	97.6650	4.3071	-1.135
4.945	68.31	97.6600	4.3069	-1.097
4.953	68.39	97.6550	4.3067	-1.061
4.962	68.48	97.6501	4.3065	-1.023
4.970	68.56	97.6451	4.3062	-0.986
4.978	68.65	97.6402	4.3060	-0.948
4.987	68.74	97.6353	4.3058	-0.911
4.995	68.82	97.6304	4.3056	-0.876
5.003	68.91	97.6255	4.3054	-0.840
5.012	68.99	97.6206	4.3052	-0.803
5.020	69.08	97.6157	4.3049	-0.767
5.028	69.16	97.6109	4.3047	-0.730
5.037	69.25	97.6060	4.3045	-0.693
5.045	69.33	97.6012	4.3043	-0.659
5.053	69.42	97.5964	4.3041	-0.623
5.062	69.50	97.5917	4.3039	-0.587
5.070	69.59	97.5869	4.3037	-0.551
5.078	69.67	97.5822	4.3035	-0.515
5.087	69.76	97.5775	4.3033	-0.479
5.095	69.85	97.5728	4.3030	-0.444
5.103	69.93	97.5681	4.3028	-0.408
5.112	70.02	97.5634	4.3026	-0.374
5.120	70.10	97.5588	4.3024	-0.338
5.128	70.19	97.5542	4.3022	-0.302
5.137	70.28	97.5496	4.3020	-0.267
5.145	70.36	97.5450	4.3018	-0.232
5.153	70.45	97.5404	4.3016	-0.198
5.162	70.53	97.5359	4.3014	-0.163
5.170	70.62	97.5314	4.3012	-0.127
5.178	70.70	97.5269	4.3010	-0.091
5.187	70.79	97.5224	4.3008	-0.056
5.195	70.88	97.5179	4.3006	-0.020
5.203	70.96	97.5135	4.3004	0.015
5.212	71.05	97.5091	4.3002	0.051
5.220	71.13	97.5047	4.3000	0.087
5.228	71.22	97.5003	4.2998	0.124
5.237	71.31	97.4959	4.2997	0.159
5.245	71.39	97.4916	4.2995	0.195
5.253	71.48	97.4872	4.2993	0.230
5.262	71.56	97.4829	4.2991	0.264
5.270	71.65	97.4786	4.2989	0.297
5.278	71.74	97.4743	4.2987	0.332
5.287	71.82	97.4700	4.2985	0.365
5.295	71.91	97.4657	4.2983	0.398
5.303	71.99	97.4615	4.2981	0.431
5.312	72.08	97.4572	4.2980	0.464
5.320	72.17	97.4530	4.2978	0.498
5.328	72.25	97.4488	4.2976	0.530
5.337	72.34	97.4446	4.2974	0.564
5.345	72.42	97.4405	4.2972	0.597
5.353	72.51	97.4364	4.2970	0.630
5.362	72.60	97.4323	4.2969	0.663
5.370	72.68	97.4282	4.2967	0.695
5.378	72.77	97.4241	4.2965	0.727
5.387	72.85	97.4201	4.2963	0.758
5.395	72.94	97.4161	4.2961	0.791
5.403	73.02	97.4121	4.2960	0.821
5.412	73.11	97.4082	4.2958	0.852
5.420	73.20	97.4043	4.2956	0.883
5.428	73.28	97.4004	4.2954	0.915
5.437	73.37	97.3965	4.2953	0.947
5.445	73.45	97.3926	4.2951	0.980
5.453	73.54	97.3888	4.2949	1.012
5.462	73.63	97.3849	4.2948	1.045
5.470	73.71	97.3811	4.2946	1.078
5.478	73.80	97.3773	4.2944	1.110
5.487	73.89	97.3736	4.2943	1.143
5.495	73.97	97.3698	4.2941	1.178
5.503	74.06	97.3661	4.2939	1.211
5.512	74.14	97.3624	4.2938	1.244
5.520	74.23	97.3587	4.2936	1.278
5.528	74.32	97.3550	4.2934	1.310
5.537	74.40	97.3514	4.2933	1.342
5.545	74.49	97.3477	4.2931	1.374
5.553	74.58	97.3441	4.2930	1.406
5.562	74.66	97.3405	4.2928	1.438
5.570	74.75	97.3369	4.2926	1.470
5.578	74.84	97.3333	4.2925	1.500
5.587	74.92	97.3297	4.2923	1.530
5.595	75.01	97.3261	4.2922	1.560
5.603	75.09	97.3226	4.2920	1.590
5.612	75.18	97.3191	4.2919	1.620
5.620	75.27	97.3156	4.2917	1.651
5.628	75.35	97.3121	4.2915	1.681
5.637	75.44	97.3086	4.2914	1.711
5.645	75.53	97.3052	4.2912	1.742
5.653	75.61	97.3017	4.2911	1.773
5.662	75.70	97.2983	4.2909	1.804
5.670	75.78	97.2950	4.2908	1.835
5.678	75.87	97.2916	4.2906	1.867
5.687	75.96	97.2882	4.2905	1.897
5.695	76.04	97.2849	4.2903	1.926
5.703	76.13	97.2815	4.2902	1.954
5.712	76.22	97.2782	4.2901	1.984
5.720	76.30	97.2750	4.2899	2.015
5.728	76.39	97.2717	4.2898	2.044
5.737	76.47	97.2684	4.2896	2.074
5.745	76.56	97.2652	4.2895	2.104
5.753	76.65	97.2620	4.2893	2.134
5.762	76.73	97.2588	4.2892	2.162
5.770	76.82	97.2557	4.2891	2.191
5.778	76.91	97.2525	4.2889	2.221
5.787	77.00	97.2494	4.2888	2.250
5.795	77.08	97.2463	4.2887	2.278
5.803	77.17	97.2433	4.2885	2.305
5.812	77.25	97.2402	4.2884	2.332
5.820	77.34	97.2372	4.2882	2.360
5.828	77.43	97.2341	4.2881	2.387
5.837	77.51	97.2311	4.2880	2.415
5.845	77.60	97.2281	4.2878	2.442
5.853	77.68	97.2251	4.2877	2.470
5.862	77.77	97.2221	4.2876	2.499
5.870	77.86	97.2192	4.2875	2.527
5.878	77.94	97.2162	4.2873	2.555
5.887	78.03	97.2133	4.2872	2.583
5.895	78.12	97.2104	4.2871	2.610
5.903	78.20	97.2075	4.2869	2.636
5.912	78.29	97.2047	4.2868	2.665
5.920	78.38	97.2018	4.2867	2.694
5.928	78.46	97.1990	4.2866	2.722
5.937	78.55	97.1962	4.2864	2.750
5.945	78.64	97.1934	4.2863	2.778
5.953	78.72	97.1906	4.2862	2.805
5.962	78.81	97.1878	4.2861	2.832
5.970	78.90	97.1850	4.2859	2.859
5.978	78.98	97.1822	4.2858	2.887
5.987	79.07	97.1795	4.2857	2.915
5.995	79.16	97.1767	4.2856	2.941
6.003	79.24	97.1740	4.2855	2.967
6.012	79.33	97.1713	4.2853	2.994
6.020	79.42	97.1686	4.2852	3.022
6.028	79.50	97.1659	4.2851	3.048
6.037	79.59	97.1633	4.2850	3.075
6.045	79.68	97.1607	4.2849	3.102
6.053	79.76	97.1581	4.2848	3.131
6.062	79.85	97.1555	4.2846	3.158
6.070	79.94	97.1529	4.2845	3.186
6.078	80.02	97.1504	4.2844	3.213
6.087	80.11	97.1478	4.2843	3.240
6.095	80.20	97.1453	4.2842	3.266
6.103	80.28	97.1428	4.2841	3.291
6.112	80.37	97.1403	4.2840	3.318
6.120	80.46	97.1378	4.2839	3.344
6.128	80.54	97.1354	4.2838	3.370
6.137	80.63	97.1329	4.2836	3.395
6.145	80.72	97.1305	4.2835	3.421
6.153	80.80	97.1281	4.2834	3.445
6.162	80.89	97.1257	4.2833	3.470
6.170	80.98	97.1233	4.2832	3.494
6.178	81.06	97.1210	4.2831	3.520
6.187	81.15	97.1187	4.2830	3.545
6.195	81.24	97.1163	4.2829	3.570
6.203	81.32	97.1140	4.2828	3.594
6.212	81.41	97.1117	4.2827	3.618
6.220	81.50	97.1095	4.2826	3.642
6.228	81.58	97.1072	4.2825	3.667
6.237	81.67	97.1050	4.2824	3.691
6.245	81.76	97.1027	4.2823	3.716
6.253	81.84	97.1005	4.2822	3.741
6.262	81.93	97.0983	4.2821	3.765
6.270	82.02	97.0961	4.2820	3.790
6.278	82.10	97.0940	4.2819	3.815
6.287	82.19	97.0918	4.2818	3.841
6.295	82.28	97.0897	4.2817	3.866
6.303	82.36	97.0876	4.2816	3.889
6.312	82.45	97.0854	4.2816	3.913
6.320	82.54	97.0833	4.2815	3.937
6.328	82.62	97.0813	4.2814	3.960
6.337	82.71	97.0792	4.2813	3.984
6.345	82.80	97.0772	4.2812	4.007
6.353	82.88	97.0751	4.2811	4.031
6.362	82.97	97.0731	4.2810	4.054
6.370	83.06	97.0711	4.2809	4.077
6.378	83.14	97.0691	4.2808	4.101
6.387	83.23	97.0672	4.2807	4.124
6.395	83.32	97.0652	4.2807	4.149
6.403	83.40	97.0633	4.2806	4.173
6.412	83.49	97.0613	4.2805	4.197
6.420	83.58	97.0594	4.2804	4.219
6.428	83.66	97.0575	4.2803	4.241
6.437	83.75	97.0556	4.2802	4.263
6.445	83.84	97.0537	4.2802	4.286
6.453	83.93	97.0518	4.2801	4.308
6.462	84.01	97.0500	4.2800	4.329
6.470	84.10	97.0482	4.2799	4.351
6.478	84.19	97.0463	4.2798	4.374
6.487	84.27	97.0445	4.2797	4.395
6.495	84.36	97.0427	4.2797	4.418
6.503	84.44	97.0409	4.2796	4.441
6.512	84.53	97.0391	4.2795	4.464
6.520	84.62	97.0373	4.2794	4.487
6.528	84.70	97.0356	4.2794	4.511
6.537	84.79	97.0338	4.2793	4.534
6.545	84.88	97.0321	4.2792	4.557
6.553	84.96	97.0303	4.2791	4.581
6.562	85.05	97.0286	4.2790	4.603
6.570	85.14	97.0269	4.2790	4.625
6.578	85.22	97.0252	4.2789	4.647
6.587	85.31	97.0236	4.2788	4.668
6.595	85.40	97.0219	4.2788	4.690
6.603	85.48	97.0203	4.2787	4.711
6.612	85.57	97.0186	4.2786	4.732
6.620	85.66	97.0170	4.2785	4.753
6.628	85.74	97.0155	4.2785	4.772
6.637	85.83	97.0139	4.2784	4.791
6.645	85.92	97.0123	4.2783	4.810
6.653	86.00	97.0108	4.2783	4.831
6.662	86.09	97.0092	4.2782	4.851
6.670	86.18	97.0077	4.2781	4.870
6.678	86.26	97.0061	4.2781	4.890
6.687	86.35	97.0046	4.2780	4.910
6.695	86.44	97.0031	4.2779	4.929
6.703	86.52	97.0016	4.2779	4.949
6.712	86.61	97.0001	4.2778	4.969
6.720	86.70	96.9986	4.2777	4.989
6.728	86.78	96.9972	4.2777	5.010
6.737	86.87	96.9957	4.2776	5.030
6.745	86.96	96.9943	4.2775	5.049
6.753	87.04	96.9929	4.2775	5.069
6.762	87.13	96.9915	4.2774	5.090
6.770	87.22	96.9901	4.2773	5.109
6.778	87.30	96.9887	4.2773	5.128
6.787	87.39	96.9874	4.2772	5.149
6.795	87.48	96.9860	4.2772	5.168
6.803	87.56	96.9847	4.2771	5.188
6.812	87.65	96.9834	4.2771	5.206
6.820	87.74	96.9820	4.2770	5.226
6.828	87.82	96.9807	4.2769	5.245
6.837	87.91	96.9794	4.2769	5.263
6.845	88.00	96.9781	4.2768	5.282
6.853	88.08	96.9768	4.2768	5.301
6.862	88.17	96.9755	4.2767	5.320
6.870	88.26	96.9742	4.2766	5.338
6.878	88.34	96.9729	4.2766	5.357
6.887	88.43	96.9717	4.2765	5.376
6.895	88.52	96.9705	4.2765	5.395
6.903	88.60	96.9692	4.2764	5.414
6.912	88.69	96.9680	4.2764	5.432
6.920	88.78	96.9668	4.2763	5.450
6.928	88.86	96.9656	4.2763	5.469
6.937	88.95	96.9643	4.2762	5.486
6.945	89.04	96.9632	4.2762	5.504
6.953	89.12	96.9620	4.2761	5.523
6.962	89.21	96.9608	4.2761	5.540
6.970	89.29	96.9596	4.2760	5.559
6.978	89.38	96.9585	4.2760	5.577
6.987	89.47	96.9574	4.2759	5.594
6.995	89.55	96.9562	4.2759	5.612
7.003	89.64	96.9551	4.2758	5.630
7.012	89.73	96.9540	4.2758	5.647
7.020	89.81	96.9530	4.2757	5.664
7.028	89.90	96.9519	4.2757	5.682
7.037	89.99	96.9508	4.2756	5.699
7.045	90.07	96.9498	4.2756	5.715
7.053	90.16	96.9488	4.2755	5.730
7.062	90.25	96.9478	4.2755	5.746
7.070	90.33	96.9468	4.2754	5.762
7.078	90.42	96.9458	4.2754	5.778
7.087	90.50	96.9448	4.2753	5.795
7.095	90.59	96.9438	4.2753	5.811
7.103	90.68	96.9428	4.2753	5.828
7.112	90.76	96.9418	4.2752	5.844
7.120	90.85	96.9408	4.2752	5.859
7.128	90.94	96.9398	4.2751	5.875
7.137	91.02	96.9389	4.2751	5.891
7.145	91.11	96.9379	4.2750	5.908
7.153	91.20	96.9369	4.2750	5.923
7.162	91.28	96.9360	4.2750	5.939
7.170	91.37	96.9351	4.2749	5.955
7.178	91.46	96.9342	4.2749	5.970
7.187	91.54	96.9333	4.2748	5.985
7.195	91.63	96.9324	4.2748	6.001
7.203	91.72	96.9315	4.2748	6.017
7.212	91.80	96.9306	4.2747	6.033
7.220	91.89	96.9298	4.2747	6.048
7.228	91.97	96.9289	4.2747	6.063
7.237	92.06	96.9281	4.2746	6.078
7.245	92.15	96.9273	4.2746	6.092
7.253	92.23	96.9265	4.2745	6.108
7.262	92.32	96.9257	4.2745	6.122
7.270	92.41	96.9249	4.2745	6.137
7.278	92.49	96.9241	4.2744	6.151
7.287	92.58	96.9233	4.2744	6.165
7.295	92.67	96.9225	4.2744	6.178
7.303	92.75	96.9217	4.2743	6.191
7.312	92.84	96.9209	4.2743	6.205
7.320	92.92	96.9202	4.2743	6.220
7.328	93.01	96.9194	4.2742	6.234
7.337	93.10	96.9186	4.2742	6.247
7.345	93.18	96.9179	4.2742	6.261
7.353	93.27	96.9171	4.2741	6.275
7.362	93.36	96.9164	4.2741	6.290
7.370	93.44	96.9156	4.2741	6.304
7.378	93.53	96.9149	4.2740	6.319
7.387	93.61	96.9142	4.2740	6.334
7.395	93.70	96.9135	4.2740	6.348
7.403	93.79	96.9128	4.2739	6.362
7.412	93.87	96.9121	4.2739	6.376
7.420	93.96	96.9114	4.2739	6.390
7.428	94.05	96.9108	4.2739	6.402
7.437	94.13	96.9101	4.2738	6.415
7.445	94.22	96.9094	4.2738	6.427
7.453	94.30	96.9088	4.2738	6.439
7.462	94.39	96.9081	4.2737	6.451
7.470	94.48	96.9075	4.2737	6.463
7.478	94.56	96.9068	4.2737	6.475
7.487	94.65	96.9062	4.2736	6.487
7.495	94.74	96.9055	4.2736	6.500
7.503	94.82	96.9049	4.2736	6.512
7.512	94.91	96.9042	4.2736	6.526
7.520	94.99	96.9036	4.2735	6.539
7.528	95.08	96.9030	4.2735	6.552
7.537	95.17	96.9023	4.2735	6.565
7.545	95.25	96.9017	4.2735	6.577
7.553	95.34	96.9011	4.2734	6.589
7.562	95.42	96.9005	4.2734	6.601
7.570	95.51	96.9000	4.2734	6.613
7.578	95.60	96.8994	4.2733	6.626
7.587	95.68	96.8988	4.2733	6.638
7.595	95.77	96.8982	4.2733	6.649
7.603	95.86	96.8977	4.2733	6.659
7.612	95.94	96.8971	4.2732	6.669
7.620	96.03	96.8966	4.2732	6.679
7.628	96.11	96.8960	4.2732	6.691
7.637	96.20	96.8954	4.2732	6.702
7.645	96.29	96.8949	4.2732	6.714
7.653	96.37	96.8943	4.2731	6.725
7.662	96.46	96.8938	4.2731	6.736
7.670	96.54	96.8933	4.2731	6.747
7.678	96.63	96.8927	4.2731	6.757
7.687	96.71	96.8922	4.2730	6.768
7.695	96.80	96.8917	4.2730	6.779
7.703	96.89	96.8911	4.2730	6.790
7.712	96.97	96.8906	4.2730	6.800
7.720	97.06	96.8901	4.2729	6.811
7.728	97.15	96.8895	4.2729	6.820
7.737	97.23	96.8891	4.2729	6.830
7.745	97.32	96.8885	4.2729	6.839
7.753	97.40	96.8881	4.2728	6.848
7.762	97.49	96.8876	4.2728	6.858
7.770	97.58	96.8871	4.2728	6.867
7.778	97.66	96.8866	4.2728	6.877
7.787	97.75	96.8862	4.2728	6.886
7.795	97.83	96.8857	4.2727	6.897
7.803	97.92	96.8853	4.2727	6.908
7.812	98.01	96.8848	4.2727	6.919
7.820	98.09	96.8844	4.2727	6.930
7.828	98.18	96.8839	4.2727	6.940
7.837	98.26	96.8835	4.2726	6.951
7.845	98.35	96.8831	4.2726	6.961
7.853	98.44	96.8827	4.2726	6.971
7.862	98.52	96.8823	4.2726	6.982
7.870	98.61	96.8819	4.2726	6.993
7.878	98.69	96.8815	4.2726	7.002
7.887	98.78	96.8812	4.2725	7.010
7.895	98.87	96.8808	4.2725	7.018
7.903	98.95	96.8805	4.2725	7.027
7.912	99.04	96.8801	4.2725	7.035
7.920	99.13	96.8797	4.2725	7.042
7.928	99.21	96.8793	4.2725	7.050
7.937	99.30	96.8790	4.2725	7.058
7.945	99.38	96.8786	4.2724	7.064
7.953	99.47	96.8783	4.2724	7.070
7.962	99.56	96.8779	4.2724	7.077
7.970	99.64	96.8775	4.2724	7.085
7.978	99.73	96.8772	4.2724	7.093
7.987	99.81	96.8768	4.2724	7.100
7.995	99.90	96.8765	4.2723	7.108
8.003	99.98	96.8761	4.2723	7.116
8.012	100.07	96.8758	4.2723	7.124
8.020	100.16	96.8755	4.2723	7.132
8.028	100.24	96.8751	4.2723	7.140
8.037	100.33	96.8748	4.2723	7.149
8.045	100.41	96.8745	4.2723	7.157
8.053	100.50	96.8742	4.2722	7.165
8.062	100.58	96.8739	4.2722	7.173
8.070	100.67	96.8735	4.2722	7.181
8.078	100.76	96.8732	4.2722	7.190
8.087	100.84	96.8730	4.2722	7.199
8.095	100.93	96.8726	4.2722	7.207
8.103	101.01	96.8723	4.2722	7.216
8.112	101.10	96.8720	4.2721	7.225
8.120	101.19	96.8718	4.2721	7.233
8.128	101.27	96.8715	4.2721	7.241
8.137	101.36	96.8712	4.2721	7.249
8.145	101.44	96.8709	4.2721	7.256
8.153	101.53	96.8707	4.2721	7.264
8.162	101.62	96.8704	4.2721	7.271
8.170	101.70	96.8701	4.2721	7.278
8.178	101.79	96.8699	4.2720	7.284
8.187	101.87	96.8697	4.2720	7.291
8.195	101.96	96.8694	4.2720	7.297
8.203	102.04	96.8692	4.2720	7.303
8.212	102.13	96.8689	4.2720	7.310
8.220	102.22	96.8687	4.2720	7.316
8.228	102.30	96.8684	4.2720	7.323
8.237	102.39	96.8682	4.2720	7.330
8.245	102.48	96.8679	4.2720	7.336
8.253	102.56	96.8677	4.2720	7.342
8.262	102.65	96.8674	4.2719	7.348
8.270	102.73	96.8671	4.2719	7.354
8.278	102.82	96.8668	4.2719	7.360
8.287	102.90	96.8666	4.2719	7.366
8.295	102.99	96.8663	4.2719	7.372
8.303	103.08	96.8660	4.2719	7.378
8.312	103.16	96.8657	4.2719	7.383
8.320	103.25	96.8655	4.2719	7.389
8.328	103.33	96.8652	4.2718	7.394
8.337	103.42	96.8650	4.2718	7.399
8.345	103.50	96.8648	4.2718	7.405
8.353	103.59	96.8645	4.2718	7.410
8.362	103.68	96.8643	4.2718	7.415
8.370	103.76	96.8641	4.2718	7.420
8.378	103.85	96.8638	4.2718	7.424
8.387	103.93	96.8636	4.2718	7.428
8.395	104.02	96.8634	4.2718	7.432
8.403	104.10	96.8632	4.2718	7.436
8.412	104.19	96.8629	4.2717	7.439
8.420	104.28	96.8627	4.2717	7.442
8.428	104.36	96.8625	4.2717	7.446
8.437	104.45	96.8623	4.2717	7.449
8.445	104.53	96.8621	4.2717	7.452
8.453	104.62	96.8619	4.2717	7.456
8.462	104.70	96.8617	4.2717	7.460
8.470	104.79	96.8615	4.2717	7.465
8.478	104.88	96.8613	4.2717	7.470
8.487	104.96	96.8611	4.2717	7.475
8.495	105.05	96.8610	4.2717	7.480
8.503	105.13	96.8608	4.2716	7.486
8.512	105.22	96.8606	4.2716	7.492
8.520	105.31	96.8604	4.2716	7.498
8.528	105.39	96.8603	4.2716	7.503
8.537	105.48	96.8601	4.2716	7.508
8.545	105.56	96.8599	4.2716	7.514
8.553	105.65	96.8597	4.2716	7.520
8.562	105.73	96.8596	4.2716	7.525
8.570	105.82	96.8594	4.2716	7.530
8.578	105.91	96.8592	4.2716	7.535
8.587	105.99	96.8590	4.2716	7.539
8.595	106.08	96.8588	4.2716	7.543
8.603	106.16	96.8586	4.2715	7.547
8.612	106.25	96.8584	4.2715	7.551
8.620	106.33	96.8582	4.2715	7.555
8.628	106.42	96.8579	4.2715	7.558
8.637	106.51	96.8577	4.2715	7.560

[step]
Isothermal 30.0 min
Time	Temperature	Weight	Weight	Heat Flow
min	°C	%	mg	mW
8.645	106.59	96.8575	4.2715	7.562
8.670	106.85	96.8570	4.2715	7.569
8.695	107.11	96.8565	4.2715	7.576
8.720	107.36	96.8559	4.2714	7.586
8.745	107.62	96.8554	4.2714	7.602
8.770	107.87	96.8548	4.2714	7.624
8.795	108.12	96.8542	4.2714	7.649
8.820	108.37	96.8538	4.2713	7.677
8.845	108.61	96.8534	4.2713	7.705
8.870	108.86	96.8530	4.2713	7.739
8.895	109.09	96.8525	4.2713	7.778
8.920	109.33	96.8520	4.2713	7.822
8.945	109.55	96.8514	4.2712	7.869
8.970	109.78	96.8507	4.2712	7.924
8.995	110.00	96.8501	4.2712	7.982
9.020	110.21	96.8495	4.2711	8.047
9.045	110.42	96.8488	4.2711	8.113
9.070	110.62	96.8482	4.2711	8.182
9.095	110.81	96.8475	4.2711	8.255
9.120	111.00	96.8468	4.2710	8.334
9.145	111.19	96.8460	4.2710	8.418
9.170	111.36	96.8453	4.2710	8.502
9.195	111.53	96.8446	4.2709	8.587
9.220	111.70	96.8439	4.2709	8.674
9.245	111.85	96.8433	4.2709	8.765
9.270	112.01	96.8426	4.2708	8.861
9.295	112.15	96.8418	4.2708	8.959
9.320	112.29	96.8410	4.2708	9.056
9.345	112.42	96.8401	4.2707	9.153
9.370	112.54	96.8392	4.2707	9.251
9.395	112.66	96.8384	4.2707	9.353
9.420	112.77	96.8377	4.2706	9.458
9.445	112.87	96.8370	4.2706	9.566
9.470	112.96	96.8364	4.2706	9.674
9.495	113.05	96.8357	4.2705	9.782
9.520	113.13	96.8349	4.2705	9.892
9.545	113.20	96.8341	4.2705	10.003
9.570	113.27	96.8333	4.2704	10.113
9.595	113.32	96.8324	4.2704	10.222
9.620	113.38	96.8316	4.2704	10.330
9.645	113.43	96.8307	4.2703	10.434
9.670	113.47	96.8297	4.2703	10.536
9.695	113.51	96.8287	4.2702	10.634
9.720	113.54	96.8278	4.2702	10.729
9.745	113.56	96.8269	4.2702	10.822
9.770	113.58	96.8260	4.2701	10.911
9.795	113.60	96.8250	4.2701	10.997
9.820	113.61	96.8240	4.2700	11.083
9.845	113.62	96.8231	4.2700	11.167
9.870	113.62	96.8222	4.2699	11.246
9.895	113.62	96.8214	4.2699	11.321
9.920	113.61	96.8206	4.2699	11.392
9.945	113.60	96.8198	4.2698	11.462
9.970	113.58	96.8190	4.2698	11.532
9.995	113.57	96.8181	4.2698	11.599
10.020	113.54	96.8173	4.2697	11.665
10.045	113.52	96.8163	4.2697	11.724
10.070	113.49	96.8152	4.2696	11.778
10.095	113.47	96.8141	4.2696	11.826
10.120	113.43	96.8130	4.2695	11.868
10.145	113.40	96.8121	4.2695	11.906
10.170	113.37	96.8112	4.2695	11.939
10.195	113.33	96.8103	4.2694	11.970
10.220	113.30	96.8094	4.2694	11.997
10.245	113.26	96.8086	4.2693	12.021
10.270	113.22	96.8078	4.2693	12.041
10.295	113.19	96.8070	4.2693	12.058
10.320	113.15	96.8064	4.2692	12.072
10.345	113.11	96.8058	4.2692	12.083
10.370	113.07	96.8053	4.2692	12.090
10.395	113.03	96.8048	4.2692	12.094
10.420	112.99	96.8042	4.2692	12.099
10.445	112.95	96.8037	4.2691	12.103
10.470	112.91	96.8032	4.2691	12.108
10.495	112.87	96.8027	4.2691	12.111
10.520	112.83	96.8022	4.2691	12.113
10.545	112.79	96.8017	4.2690	12.114
10.570	112.75	96.8012	4.2690	12.114
10.595	112.72	96.8007	4.2690	12.112
10.620	112.68	96.8002	4.2690	12.107
10.645	112.64	96.7998	4.2690	12.099
10.670	112.61	96.7995	4.2689	12.089
10.695	112.57	96.7991	4.2689	12.077
10.720	112.54	96.7987	4.2689	12.065
10.745	112.50	96.7982	4.2689	12.052
10.770	112.47	96.7977	4.2689	12.037
10.795	112.44	96.7973	4.2688	12.020
10.820	112.40	96.7970	4.2688	12.001
10.845	112.38	96.7966	4.2688	11.982
10.870	112.35	96.7963	4.2688	11.963
10.895	112.32	96.7961	4.2688	11.941
10.920	112.29	96.7959	4.2688	11.917
10.945	112.27	96.7957	4.2688	11.894
10.970	112.24	96.7955	4.2688	11.872
10.995	112.22	96.7952	4.2688	11.851
11.020	112.20	96.7950	4.2687	11.828
11.045	112.17	96.7948	4.2687	11.805
11.070	112.16	96.7945	4.2687	11.784
11.095	112.14	96.7942	4.2687	11.764
11.120	112.12	96.7940	4.2687	11.746
11.145	112.10	96.7939	4.2687	11.726
11.170	112.09	96.7937	4.2687	11.701
11.195	112.07	96.7935	4.2687	11.677
11.220	112.06	96.7932	4.2687	11.653
11.245	112.05	96.7929	4.2687	11.631
11.270	112.04	96.7927	4.2686	11.608
11.295	112.03	96.7925	4.2686	11.585
11.320	112.03	96.7924	4.2686	11.563
11.345	112.02	96.7923	4.2686	11.540
11.370	112.01	96.7921	4.2686	11.515
11.395	112.01	96.7919	4.2686	11.492
11.420	112.01	96.7917	4.2686	11.470
11.445	112.00	96.7915	4.2686	11.450
[...]
94.803	950.19	0.2696	0.0119	119.497
94.812	950.19	0.2695	0.0119	119.503
94.820	950.20	0.2695	0.0119	119.508
94.828	950.20	0.2694	0.0119	119.514
94.837	950.20	0.2693	0.0119	119.519
94.845	950.20	0.2693	0.0119	119.524
94.853	950.20	0.2692	0.0119	119.530
94.862	950.20	0.2691	0.0119	119.536
94.870	950.20	0.2691	0.0119	119.543
94.878	950.20	0.2690	0.0119	119.550
94.887	950.20	0.2689	0.0119	119.557
94.895	950.20	0.2688	0.0119	119.564
94.903	950.20	0.2688	0.0119	119.572
94.912	950.20	0.2687	0.0118	119.580
94.920	950.20	0.2686	0.0118	119.588
94.928	950.20	0.2685	0.0118	119.596
94.937	950.20	0.2684	0.0118	119.604
94.945	950.20	0.2683	0.0118	119.610
94.953	950.20	0.2682	0.0118	119.616
94.962	950.20	0.2681	0.0118	119.622
94.970	950.20	0.2680	0.0118	119.628
94.978	950.20	0.2679	0.0118	119.633
94.987	950.21	0.2678	0.0118	119.638
94.995	950.21	0.2678	0.0118	119.641
95.003	950.21	0.2677	0.0118	119.645
95.012	950.21	0.2676	0.0118	119.648
95.020	950.21	0.2674	0.0118	119.651
95.028	950.21	0.2673	0.0118	119.654
95.037	950.21	0.2672	0.0118	119.657
95.045	950.21	0.2671	0.0118	119.660
95.053	950.21	0.2670	0.0118	119.662
95.062	950.21	0.2669	0.0118	119.665
95.070	950.21	0.2668	0.0118	119.668
95.078	950.21	0.2667	0.0118	119.673
95.087	950.21	0.2666	0.0118	119.678
95.095	950.21	0.2665	0.0118	119.683
95.103	950.21	0.2664	0.0117	119.688
95.112	950.21	0.2664	0.0117	119.693
95.120	950.21	0.2663	0.0117	119.698
95.128	950.21	0.2662	0.0117	119.704
95.137	950.21	0.2661	0.0117	119.710
95.145	950.22	0.2661	0.0117	119.716
95.153	950.22	0.2660	0.0117	119.721
95.162	950.22	0.2659	0.0117	119.727
95.170	950.22	0.2659	0.0117	119.731
95.178	950.22	0.2658	0.0117	119.735
95.187	950.22	0.2657	0.0117	119.740
95.195	950.22	0.2656	0.0117	119.745
95.203	950.22	0.2655	0.0117	119.749
95.212	950.22	0.2655	0.0117	119.753
95.220	950.22	0.2654	0.0117	119.757
95.228	950.22	0.2653	0.0117	119.762
95.237	950.22	0.2652	0.0117	119.766
95.245	950.22	0.2652	0.0117	119.772
95.253	950.22	0.2651	0.0117	119.777
95.262	950.22	0.2650	0.0117	119.783
95.270	950.22	0.2649	0.0117	119.790
95.278	950.22	0.2649	0.0117	119.797
95.287	950.22	0.2648	0.0117	119.804
95.295	950.22	0.2647	0.0117	119.811
95.303	950.22	0.2647	0.0117	119.818
95.312	950.22	0.2646	0.0117	119.825
95.320	950.22	0.2645	0.0117	119.831
95.328	950.22	0.2644	0.0117	119.837
95.337	950.22	0.2643	0.0117	119.844
95.345	950.22	0.2642	0.0117	119.849
95.353	950.22	0.2641	0.0116	119.855
95.362	950.22	0.2640	0.0116	119.861
95.370	950.22	0.2639	0.0116	119.868
95.378	950.23	0.2638	0.0116	119.874
95.387	950.23	0.2637	0.0116	119.881
95.395	950.23	0.2636	0.0116	119.888
95.403	950.23	0.2635	0.0116	119.895
95.412	950.23	0.2634	0.0116	119.902
95.420	950.23	0.2633	0.0116	119.909
95.428	950.23	0.2632	0.0116	119.915
95.437	950.23	0.2631	0.0116	119.921
95.445	950.23	0.2630	0.0116	119.927
95.453	950.23	0.2630	0.0116	119.932
95.462	950.23	0.2629	0.0116	119.937
95.470	950.23	0.2628	0.0116	119.941
95.478	950.23	0.2628	0.0116	119.946
95.487	950.23	0.2627	0.0116	119.951
95.495	950.23	0.2627	0.0116	119.955
95.503	950.23	0.2626	0.0116	119.959
95.512	950.23	0.2626	0.0116	119.963
95.520	950.23	0.2625	0.0116	119.967
95.528	950.23	0.2624	0.0116	119.971
95.537	950.23	0.2624	0.0116	119.975
95.545	950.23	0.2623	0.0116	119.979
95.553	950.23	0.2623	0.0116	119.983
95.562	950.23	0.2622	0.0116	119.986
95.570	950.23	0.2621	0.0116	119.989
95.578	950.23	0.2621	0.0116	119.992
95.587	950.23	0.2620	0.0116	119.994
95.595	950.23	0.2620	0.0116	119.997
95.603	950.23	0.2619	0.0116	120.000
95.612	950.23	0.2619	0.0115	120.003
95.620	950.23	0.2618	0.0115	120.006
95.628	950.23	0.2617	0.0115	120.009
95.637	950.23	0.2616	0.0115	120.012
95.645	950.23	0.2616	0.0115	120.015
95.653	950.24	0.2615	0.0115	120.018
95.662	950.24	0.2614	0.0115	120.021
95.670	950.24	0.2613	0.0115	120.025
95.678	950.24	0.2612	0.0115	120.028
95.687	950.24	0.2611	0.0115	120.031
95.695	950.24	0.2610	0.0115	120.034
95.703	950.24	0.2609	0.0115	120.036
95.712	950.24	0.2608	0.0115	120.039
95.720	950.24	0.2607	0.0115	120.042
95.728	950.24	0.2606	0.0115	120.044
95.737	950.24	0.2606	0.0115	120.047
95.745	950.24	0.2605	0.0115	120.050
95.753	950.24	0.2604	0.0115	120.053
95.762	950.24	0.2604	0.0115	120.056
95.770	950.24	0.2603	0.0115	120.059
95.778	950.24	0.2603	0.0115	120.062
95.787	950.24	0.2602	0.0115	120.065
95.795	950.24	0.2602	0.0115	120.068
95.803	950.24	0.2602	0.0115	120.071
95.812	950.24	0.2601	0.0115	120.074
95.820	950.24	0.2601	0.0115	120.077
95.828	950.24	0.2600	0.0115	120.080
95.837	950.24	0.2600	0.0115	120.083
95.845	950.24	0.2599	0.0115	120.085
95.853	950.24	0.2598	0.0115	120.089
95.862	950.24	0.2598	0.0115	120.092
95.870	950.24	0.2597	0.0115	120.095
95.878	950.24	0.2596	0.0114	120.098
95.887	950.24	0.2595	0.0114	120.101
95.895	950.24	0.2595	0.0114	120.105
95.903	950.24	0.2594	0.0114	120.108
95.912	950.25	0.2593	0.0114	120.112
95.920	950.25	0.2592	0.0114	120.116
95.928	950.25	0.2591	0.0114	120.120
95.937	950.25	0.2590	0.0114	120.123
95.945	950.25	0.2590	0.0114	120.127
95.953	950.25	0.2589	0.0114	120.130
95.962	950.25	0.2588	0.0114	120.134
95.970	950.25	0.2587	0.0114	120.138
95.978	950.25	0.2587	0.0114	120.142
95.987	950.25	0.2586	0.0114	120.147
95.995	950.25	0.2585	0.0114	120.151
96.003	950.25	0.2585	0.0114	120.156
96.012	950.25	0.2584	0.0114	120.159
96.020	950.25	0.2584	0.0114	120.163
96.028	950.25	0.2583	0.0114	120.167
96.037	950.25	0.2583	0.0114	120.172
96.045	950.25	0.2582	0.0114	120.176
96.053	950.25	0.2581	0.0114	120.179
96.062	950.25	0.2580	0.0114	120.182
96.070	950.25	0.2580	0.0114	120.185
96.078	950.25	0.2579	0.0114	120.187
96.087	950.25	0.2578	0.0114	120.190
96.095	950.25	0.2578	0.0114	120.193
96.103	950.25	0.2577	0.0114	120.195
96.112	950.25	0.2576	0.0114	120.198
96.120	950.25	0.2576	0.0114	120.200
96.128	950.25	0.2575	0.0114	120.202
96.137	950.25	0.2574	0.0114	120.204
96.145	950.25	0.2574	0.0114	120.206
96.153	950.25	0.2573	0.0113	120.208
96.162	950.25	0.2573	0.0113	120.211
96.170	950.25	0.2572	0.0113	120.213
96.178	950.25	0.2572	0.0113	120.215
96.187	950.25	0.2571	0.0113	120.218
96.195	950.25	0.2571	0.0113	120.220
96.203	950.25	0.2570	0.0113	120.223
96.212	950.25	0.2569	0.0113	120.226
96.220	950.25	0.2569	0.0113	120.229
96.228	950.26	0.2568	0.0113	120.233
96.237	950.26	0.2567	0.0113	120.236
96.245	950.26	0.2567	0.0113	120.240
96.253	950.26	0.2566	0.0113	120.243
96.262	950.26	0.2565	0.0113	120.247
96.270	950.26	0.2565	0.0113	120.250
96.278	950.26	0.2564	0.0113	120.254
96.287	950.26	0.2563	0.0113	120.257
96.295	950.26	0.2563	0.0113	120.260
96.303	950.26	0.2562	0.0113	120.264
96.312	950.26	0.2561	0.0113	120.268
96.320	950.26	0.2561	0.0113	120.271
96.328	950.26	0.2560	0.0113	120.275
96.337	950.26	0.2559	0.0113	120.278
96.345	950.26	0.2558	0.0113	120.281
96.353	950.26	0.2557	0.0113	120.284
96.362	950.26	0.2556	0.0113	120.287
96.370	950.26	0.2555	0.0113	120.290
96.378	950.26	0.2554	0.0113	120.293
96.387	950.26	0.2553	0.0113	120.295
96.395	950.26	0.2552	0.0113	120.298
96.403	950.26	0.2551	0.0113	120.300
96.412	950.26	0.2550	0.0112	120.303
96.420	950.26	0.2549	0.0112	120.306
96.428	950.26	0.2548	0.0112	120.308
96.437	950.26	0.2547	0.0112	120.311
96.445	950.26	0.2546	0.0112	120.314
96.453	950.26	0.2545	0.0112	120.317
96.462	950.26	0.2544	0.0112	120.319
96.470	950.26	0.2544	0.0112	120.322
96.478	950.26	0.2543	0.0112	120.324
96.487	950.26	0.2542	0.0112	120.326
96.495	950.26	0.2542	0.0112	120.328
96.503	950.26	0.2541	0.0112	120.330
96.512	950.26	0.2540	0.0112	120.333
96.520	950.26	0.2539	0.0112	120.335
96.528	950.26	0.2538	0.0112	120.338
96.537	950.26	0.2537	0.0112	120.340
96.545	950.26	0.2536	0.0112	120.343
96.553	950.26	0.2535	0.0112	120.346
96.562	950.26	0.2534	0.0112	120.349
96.570	950.26	0.2533	0.0112	120.352
96.578	950.26	0.2532	0.0112	120.355
96.587	950.26	0.2531	0.0112	120.358
96.595	950.26	0.2530	0.0112	120.361
96.603	950.26	0.2529	0.0112	120.364
96.612	950.26	0.2528	0.0111	120.368
96.620	950.26	0.2527	0.0111	120.371
96.628	950.26	0.2527	0.0111	120.374
96.637	950.26	0.2526	0.0111	120.376
96.645	950.26	0.2525	0.0111	120.379
96.653	950.26	0.2525	0.0111	120.382
96.662	950.26	0.2524	0.0111	120.385
96.670	950.26	0.2523	0.0111	120.388
96.678	950.26	0.2523	0.0111	120.390
96.687	950.26	0.2522	0.0111	120.393
96.695	950.26	0.2521	0.0111	120.395
96.703	950.27	0.2521	0.0111	120.397
96.712	950.27	0.2520	0.0111	120.400
96.720	950.27	0.2519	0.0111	120.402
96.728	950.27	0.2519	0.0111	120.404
96.737	950.27	0.2518	0.0111	120.406
96.745	950.27	0.2517	0.0111	120.408
96.753	950.27	0.2516	0.0111	120.410
96.762	950.27	0.2516	0.0111	120.412
96.770	950.27	0.2515	0.0111	120.414
96.778	950.27	0.2514	0.0111	120.416
96.787	950.27	0.2513	0.0111	120.418
96.795	950.27	0.2513	0.0111	120.420
96.803	950.27	0.2512	0.0111	120.421
96.812	950.27	0.2511	0.0111	120.423
96.820	950.27	0.2510	0.0111	120.424
96.828	950.27	0.2510	0.0111	120.425
96.837	950.27	0.2509	0.0111	120.426
96.845	950.27	0.2509	0.0111	120.427
96.853	950.27	0.2508	0.0111	120.428
96.862	950.27	0.2508	0.0111	120.429
96.870	950.27	0.2507	0.0111	120.430
96.878	950.27	0.2507	0.0111	120.431
96.887	950.27	0.2506	0.0111	120.432
96.895	950.27	0.2506	0.0111	120.433
96.903	950.27	0.2505	0.0110	120.434
96.912	950.27	0.2505	0.0110	120.435
96.920	950.27	0.2504	0.0110	120.437
96.928	950.27	0.2503	0.0110	120.438
96.937	950.27	0.2502	0.0110	120.439
96.945	950.27	0.2501	0.0110	120.440
96.953	950.27	0.2500	0.0110	120.441
96.962	950.27	0.2499	0.0110	120.442
96.970	950.27	0.2498	0.0110	120.444
96.978	950.27	0.2497	0.0110	120.445
96.987	950.27	0.2496	0.0110	120.447
96.995	950.27	0.2495	0.0110	120.448
97.003	950.27	0.2494	0.0110	120.450
97.012	950.27	0.2494	0.0110	120.452
97.020	950.27	0.2493	0.0110	120.454
97.028	950.27	0.2492	0.0110	120.456
97.037	950.27	0.2491	0.0110	120.459
97.045	950.27	0.2490	0.0110	120.461
97.053	950.27	0.2489	0.0110	120.463
97.062	950.27	0.2488	0.0110	120.465
97.070	950.27	0.2488	0.0110	120.467
97.078	950.27	0.2487	0.0110	120.469
97.087	950.27	0.2486	0.0110	120.471
97.095	950.27	0.2485	0.0110	120.472
97.103	950.27	0.2484	0.0110	120.474
97.112	950.27	0.2483	0.0109	120.475
97.120	950.27	0.2482	0.0109	120.477
97.128	950.27	0.2481	0.0109	120.478
97.137	950.27	0.2480	0.0109	120.479
97.145	950.27	0.2479	0.0109	120.480
97.153	950.27	0.2478	0.0109	120.482
97.162	950.27	0.2477	0.0109	120.483
97.170	950.27	0.2476	0.0109	120.485
97.178	950.28	0.2475	0.0109	120.487
97.187	950.28	0.2474	0.0109	120.489
97.195	950.28	0.2473	0.0109	120.491
97.203	950.28	0.2473	0.0109	120.493
97.212	950.28	0.2472	0.0109	120.495
97.220	950.28	0.2471	0.0109	120.497
97.228	950.28	0.2471	0.0109	120.500
97.237	950.28	0.2470	0.0109	120.502
97.245	950.28	0.2470	0.0109	120.504
97.253	950.28	0.2470	0.0109	120.506
97.262	950.28	0.2469	0.0109	120.508
97.270	950.28	0.2469	0.0109	120.509
97.278	950.28	0.2468	0.0109	120.511
97.287	950.28	0.2468	0.0109	120.513
97.295	950.28	0.2467	0.0109	120.514
97.303	950.28	0.2467	0.0109	120.516
97.312	950.28	0.2466	0.0109	120.517
97.320	950.28	0.2466	0.0109	120.518
97.328	950.28	0.2465	0.0109	120.520
97.337	950.28	0.2464	0.0109	120.521
97.345	950.28	0.2464	0.0109	120.523
97.353	950.28	0.2463	0.0109	120.524
97.362	950.28	0.2462	0.0109	120.525
97.370	950.28	0.2462	0.0109	120.526
97.378	950.28	0.2461	0.0109	120.527
97.387	950.28	0.2460	0.0108	120.527
97.395	950.28	0.2459	0.0108	120.528
97.403	950.28	0.2458	0.0108	120.529
97.412	950.28	0.2457	0.0108	120.529
97.420	950.28	0.2456	0.0108	120.530
97.428	950.28	0.2456	0.0108	120.530
97.437	950.28	0.2455	0.0108	120.531
97.445	950.28	0.2454	0.0108	120.531
97.453	950.28	0.2453	0.0108	120.531
97.462	950.28	0.2453	0.0108	120.531
97.470	950.28	0.2452	0.0108	120.531
97.478	950.28	0.2451	0.0108	120.531
97.487	950.28	0.2450	0.0108	120.531
97.495	950.28	0.2449	0.0108	120.531
97.503	950.28	0.2449	0.0108	120.531
97.512	950.28	0.2448	0.0108	120.531
97.520	950.28	0.2447	0.0108	120.530
97.528	950.28	0.2447	0.0108	120.530
97.537	950.28	0.2446	0.0108	120.530
97.545	950.28	0.2445	0.0108	120.530
97.553	950.28	0.2445	0.0108	120.530
97.562	950.28	0.2444	0.0108	120.530
97.570	950.28	0.2443	0.0108	120.530
97.578	950.28	0.2443	0.0108	120.530
97.587	950.28	0.2442	0.0108	120.530
97.595	950.28	0.2441	0.0108	120.531
97.603	950.28	0.2440	0.0108	120.531
97.612	950.28	0.2440	0.0108	120.531
97.620	950.28	0.2439	0.0108	120.532
97.628	950.28	0.2438	0.0108	120.533
97.637	950.28	0.2437	0.0107	120.533
97.645	950.28	0.2437	0.0107	120.534
97.653	950.28	0.2436	0.0107	120.535
97.662	950.28	0.2435	0.0107	120.536
97.670	950.28	0.2434	0.0107	120.537
97.678	950.28	0.2434	0.0107	120.538
97.687	950.28	0.2433	0.0107	120.540
97.695	950.28	0.2432	0.0107	120.541
97.703	950.28	0.2432	0.0107	120.542
97.712	950.28	0.2431	0.0107	120.543
97.720	950.28	0.2430	0.0107	120.545
97.728	950.28	0.2429	0.0107	120.546
97.737	950.28	0.2428	0.0107	120.547
97.745	950.28	0.2428	0.0107	120.548
97.753	950.28	0.2427	0.0107	120.549
97.762	950.28	0.2426	0.0107	120.550
97.770	950.28	0.2425	0.0107	120.550
97.778	950.28	0.2424	0.0107	120.551
97.787	950.29	0.2423	0.0107	120.551
97.795	950.28	0.2422	0.0107	120.551
97.803	950.28	0.2420	0.0107	120.552
97.812	950.28	0.2419	0.0107	120.552
97.820	950.28	0.2418	0.0107	120.552
97.828	950.28	0.2417	0.0107	120.552
97.837	950.28	0.2416	0.0107	120.552
97.845	950.29	0.2415	0.0107	120.553
97.853	950.29	0.2414	0.0106	120.553
97.862	950.29	0.2414	0.0106	120.554
97.870	950.29	0.2413	0.0106	120.555
97.878	950.29	0.2412	0.0106	120.556
97.887	950.29	0.2411	0.0106	120.557
97.895	950.29	0.2410	0.0106	120.558
97.903	950.29	0.2409	0.0106	120.559
97.912	950.29	0.2408	0.0106	120.561
97.920	950.29	0.2408	0.0106	120.562
97.928	950.29	0.2407	0.0106	120.564
97.937	950.29	0.2406	0.0106	120.565
97.945	950.29	0.2405	0.0106	120.567
97.953	950.29	0.2404	0.0106	120.568
97.962	950.29	0.2404	0.0106	120.569
97.970	950.29	0.2403	0.0106	120.571
97.978	950.29	0.2402	0.0106	120.572
97.987	950.29	0.2401	0.0106	120.573
97.995	950.29	0.2400	0.0106	120.573
98.003	950.29	0.2399	0.0106	120.574
98.012	950.29	0.2398	0.0106	120.575
98.020	950.29	0.2397	0.0106	120.576
98.028	950.29	0.2396	0.0106	120.577
98.037	950.29	0.2395	0.0106	120.578
98.045	950.29	0.2394	0.0106	120.579
98.053	950.29	0.2393	0.0106	120.580
98.062	950.29	0.2392	0.0105	120.581
98.070	950.29	0.2391	0.0105	120.583
98.078	950.29	0.2390	0.0105	120.584
98.087	950.29	0.2389	0.0105	120.586
98.095	950.29	0.2388	0.0105	120.587
98.103	950.29	0.2387	0.0105	120.588
98.112	950.29	0.2386	0.0105	120.589
98.120	950.29	0.2385	0.0105	120.590
98.128	950.29	0.2384	0.0105	120.591
98.137	950.29	0.2384	0.0105	120.592
98.145	950.29	0.2383	0.0105	120.593
98.153	950.29	0.2382	0.0105	120.594
98.162	950.29	0.2382	0.0105	120.594
98.170	950.29	0.2381	0.0105	120.595
98.178	950.29	0.2381	0.0105	120.596
98.187	950.29	0.2380	0.0105	120.596
98.195	950.29	0.2379	0.0105	120.597
98.203	950.29	0.2379	0.0105	120.598
98.212	950.29	0.2378	0.0105	120.599
98.220	950.29	0.2377	0.0105	120.600
98.228	950.29	0.2377	0.0105	120.601
98.237	950.29	0.2376	0.0105	120.603
98.245	950.29	0.2375	0.0105	120.604
98.253	950.29	0.2374	0.0105	120.605
98.262	950.29	0.2374	0.0105	120.607
98.270	950.29	0.2373	0.0105	120.608
98.278	950.29	0.2372	0.0105	120.609
98.287	950.29	0.2371	0.0105	120.610
98.295	950.29	0.2371	0.0105	120.610
98.303	950.29	0.2370	0.0105	120.611
98.312	950.29	0.2370	0.0104	120.611
98.320	950.29	0.2369	0.0104	120.611
98.328	950.29	0.2368	0.0104	120.612
98.337	950.29	0.2368	0.0104	120.612
98.345	950.29	0.2367	0.0104	120.612
98.353	950.29	0.2366	0.0104	120.612
98.362	950.29	0.2365	0.0104	120.613
98.370	950.29	0.2364	0.0104	120.613
98.378	950.29	0.2363	0.0104	120.613
98.387	950.29	0.2362	0.0104	120.614
98.395	950.29	0.2361	0.0104	120.614
98.403	950.29	0.2360	0.0104	120.614
98.412	950.29	0.2359	0.0104	120.614
98.420	950.29	0.2358	0.0104	120.615
98.428	950.29	0.2357	0.0104	120.615
98.437	950.29	0.2356	0.0104	120.614
98.445	950.29	0.2356	0.0104	120.614
98.453	950.29	0.2355	0.0104	120.614
98.462	950.29	0.2354	0.0104	120.613
98.470	950.29	0.2353	0.0104	120.613
98.478	950.29	0.2353	0.0104	120.613
98.487	950.29	0.2352	0.0104	120.612
98.495	950.29	0.2351	0.0104	120.612
98.503	950.29	0.2351	0.0104	120.612
98.512	950.29	0.2350	0.0104	120.612
98.520	950.29	0.2349	0.0104	120.611
98.528	950.29	0.2348	0.0104	120.611
98.537	950.29	0.2347	0.0104	120.611
98.545	950.29	0.2346	0.0103	120.611
98.553	950.29	0.2345	0.0103	120.611
98.562	950.29	0.2344	0.0103	120.611
98.570	950.29	0.2343	0.0103	120.611
98.578	950.29	0.2342	0.0103	120.612
98.587	950.29	0.2341	0.0103	120.612
98.595	950.29	0.2340	0.0103	120.613
98.603	950.29	0.2339	0.0103	120.613
98.612	950.29	0.2338	0.0103	120.614
98.620	950.29	0.2337	0.0103	120.615
98.628	950.29	0.2336	0.0103	120.616
98.637	950.29	0.2336	0.0103	120.616
98.645	950.29	0.2335	0.0103	120.617
98.653	950.29	0.2334	0.0103	120.618
98.662	950.29	0.2334	0.0103	120.619
98.670	950.29	0.2333	0.0103	120.620
98.678	950.29	0.2332	0.0103	120.620
98.687	950.29	0.2332	0.0103	120.621
98.695	950.29	0.2331	0.0103	120.621
98.703	950.29	0.2331	0.0103	120.621
98.712	950.29	0.2330	0.0103	120.621
98.720	950.29	0.2330	0.0103	120.621
98.728	950.29	0.2329	0.0103	120.621
98.737	950.29	0.2329	0.0103	120.622
98.745	950.29	0.2328	0.0103	120.622
98.753	950.29	0.2327	0.0103	120.622
98.762	950.29	0.2327	0.0103	120.622
98.770	950.29	0.2326	0.0103	120.622
98.778	950.29	0.2325	0.0103	120.621
98.787	950.29	0.2324	0.0102	120.622
98.795	950.29	0.2323	0.0102	120.622
98.803	950.29	0.2322	0.0102	120.623
98.812	950.29	0.2322	0.0102	120.623
98.820	950.29	0.2321	0.0102	120.624
98.828	950.29	0.2320	0.0102	120.624
98.837	950.29	0.2319	0.0102	120.625
98.845	950.29	0.2318	0.0102	120.626
98.853	950.29	0.2317	0.0102	120.626
98.862	950.29	0.2316	0.0102	120.627
98.870	950.29	0.2315	0.0102	120.628
98.878	950.29	0.2314	0.0102	120.628
98.887	950.29	0.2312	0.0102	120.629
98.895	950.29	0.2311	0.0102	120.629
98.903	950.29	0.2310	0.0102	120.630
98.912	950.29	0.2309	0.0102	120.630
98.920	950.29	0.2308	0.0102	120.631
98.928	950.29	0.2307	0.0102	120.632
98.937	950.29	0.2306	0.0102	120.633
98.945	950.29	0.2305	0.0102	120.634
98.953	950.29	0.2304	0.0102	120.635
98.962	950.29	0.2303	0.0102	120.636
98.970	950.29	0.2302	0.0102	120.637
98.978	950.29	0.2302	0.0102	120.639
98.987	950.29	0.2301	0.0101	120.640
98.995	950.29	0.2300	0.0101	120.642
99.003	950.30	0.2299	0.0101	120.643
99.012	950.29	0.2298	0.0101	120.644
99.020	950.29	0.2298	0.0101	120.645
99.028	950.29	0.2297	0.0101	120.646
99.037	950.29	0.2297	0.0101	120.647
99.045	950.29	0.2296	0.0101	120.648
99.053	950.30	0.2295	0.0101	120.648
99.062	950.30	0.2295	0.0101	120.649
99.070	950.30	0.2294	0.0101	120.649
99.078	950.30	0.2293	0.0101	120.650
99.087	950.30	0.2293	0.0101	120.650
99.095	950.30	0.2292	0.0101	120.650
99.103	950.30	0.2291	0.0101	120.651
99.112	950.30	0.2290	0.0101	120.651
99.120	950.30	0.2289	0.0101	120.651
99.128	950.30	0.2288	0.0101	120.651
99.137	950.30	0.2287	0.0101	120.651
99.145	950.30	0.2286	0.0101	120.652
99.153	950.30	0.2285	0.0101	120.652
99.162	950.30	0.2284	0.0101	120.652
99.170	950.30	0.2283	0.0101	120.652
99.178	950.30	0.2282	0.0101	120.653
99.187	950.30	0.2281	0.0101	120.653
99.195	950.30	0.2280	0.0101	120.653
99.203	950.30	0.2279	0.0101	120.654
99.212	950.30	0.2278	0.0100	120.655
99.220	950.30	0.2277	0.0100	120.655
99.228	950.30	0.2276	0.0100	120.656
99.237	950.30	0.2275	0.0100	120.656
99.245	950.30	0.2275	0.0100	120.657
99.253	950.30	0.2274	0.0100	120.658
99.262	950.30	0.2273	0.0100	120.658
99.270	950.30	0.2273	0.0100	120.659
99.278	950.30	0.2272	0.0100	120.659
99.287	950.30	0.2272	0.0100	120.660
99.295	950.30	0.2271	0.0100	120.661
99.303	950.30	0.2271	0.0100	120.661
99.312	950.30	0.2270	0.0100	120.662
99.320	950.30	0.2269	0.0100	120.662
99.328	950.30	0.2269	0.0100	120.663
99.337	950.30	0.2268	0.0100	120.663
99.345	950.30	0.2267	0.0100	120.664
99.353	950.30	0.2266	0.0100	120.664
99.362	950.30	0.2266	0.0100	120.665
99.370	950.30	0.2265	0.0100	120.665
99.378	950.30	0.2264	0.0100	120.666
99.387	950.30	0.2263	0.0100	120.666
99.395	950.30	0.2263	0.0100	120.667
99.403		0.2262	0.0100
99.412		0.2262	0.0100
99.420		0.2262	0.0100
99.428		0.2262	0.0100
99.437		0.2261	0.0100