File: PSO Kinetics/data/softwood-20Kmin_1.txt
Filename	softwood-20Kmin_1
Instrument name	0650-0369 (192.168.1.2)
Operator	ca527
rundate	1/8/2023
Sample name	softwood-20Kmin_1
proceduresegments	Select Gas: Gas 1 ; Ramp 10.00 °C/min to 110.00 °C; Isothermal 30.0 min; Ramp 20.00 °C/min to 900.00 °C; Isothermal 30.0 min; Select Gas: Gas 2 ; Ramp 10.00 °C/min to 950.00 °C; Isothermal 10.0 min; Data Off ; Equilibrate 30.00 °C
[step]
Ramp 10.00 °C/min to 110.00 °C
Time	Temperature	Weight	Weight	Heat Flow
min	°C	%	mg	mW
0.003		100.0304	4.1507
0.012		100.0713	4.1524
0.020		100.1094	4.1540
0.028		100.1416	4.1554
0.037		100.1668	4.1564
0.045	22.57	100.1838	4.1571	-28.034
0.053	22.61	100.1948	4.1576	-27.989
0.062	22.64	100.2029	4.1579	-27.950
0.070	22.68	100.2092	4.1582	-27.912
0.078	22.71	100.2134	4.1583	-27.876
0.087	22.75	100.2156	4.1584	-27.842
0.095	22.78	100.2164	4.1585	-27.806
0.103	22.82	100.2163	4.1585	-27.773
0.112	22.85	100.2158	4.1584	-27.739
0.120	22.89	100.2150	4.1584	-27.705
0.128	22.92	100.2141	4.1584	-27.673
0.137	22.96	100.2131	4.1583	-27.641
0.145	22.99	100.2119	4.1583	-27.609
0.153	23.03	100.2107	4.1582	-27.577
0.162	23.06	100.2094	4.1582	-27.545
0.170	23.10	100.2081	4.1581	-27.513
0.178	23.13	100.2068	4.1581	-27.483
0.187	23.17	100.2054	4.1580	-27.452
0.195	23.20	100.2040	4.1579	-27.422
0.203	23.23	100.2025	4.1579	-27.392
0.212	23.27	100.2010	4.1578	-27.362
0.220	23.30	100.1996	4.1578	-27.331
0.228	23.33	100.1980	4.1577	-27.301
0.237	23.37	100.1965	4.1576	-27.271
0.245	23.40	100.1949	4.1576	-27.243
0.253	23.43	100.1932	4.1575	-27.214
0.262	23.47	100.1915	4.1574	-27.186
0.270	23.50	100.1898	4.1574	-27.158
0.278	23.53	100.1880	4.1573	-27.130
0.287	23.57	100.1861	4.1572	-27.103
0.295	23.60	100.1841	4.1571	-27.076
0.303	23.63	100.1821	4.1570	-27.048
0.312	23.67	100.1799	4.1569	-27.020
0.320	23.70	100.1777	4.1569	-26.994
0.328	23.73	100.1755	4.1568	-26.967
0.337	23.76	100.1732	4.1567	-26.939
0.345	23.80	100.1709	4.1566	-26.913
0.353	23.83	100.1684	4.1565	-26.887
0.362	23.86	100.1659	4.1564	-26.860
0.370	23.89	100.1634	4.1563	-26.835
0.378	23.93	100.1608	4.1561	-26.809
0.387	23.96	100.1581	4.1560	-26.785
0.395	23.99	100.1554	4.1559	-26.761
0.403	24.03	100.1526	4.1558	-26.735
0.412	24.06	100.1497	4.1557	-26.710
0.420	24.09	100.1467	4.1556	-26.686
0.428	24.13	100.1436	4.1554	-26.661
0.437	24.16	100.1404	4.1553	-26.637
0.445	24.20	100.1371	4.1552	-26.615
0.453	24.23	100.1337	4.1550	-26.593
0.462	24.27	100.1303	4.1549	-26.572
0.470	24.30	100.1267	4.1547	-26.550
0.478	24.34	100.1230	4.1546	-26.529
0.487	24.37	100.1193	4.1544	-26.509
0.495	24.41	100.1155	4.1543	-26.490
0.503	24.44	100.1115	4.1541	-26.471
0.512	24.48	100.1075	4.1539	-26.452
0.520	24.52	100.1034	4.1538	-26.432
0.528	24.55	100.0993	4.1536	-26.413
0.537	24.59	100.0950	4.1534	-26.393
0.545	24.63	100.0907	4.1532	-26.375
0.553	24.67	100.0863	4.1531	-26.356
0.562	24.71	100.0818	4.1529	-26.338
0.570	24.75	100.0773	4.1527	-26.320
0.578	24.78	100.0727	4.1525	-26.304
0.587	24.82	100.0681	4.1523	-26.287
0.595	24.86	100.0634	4.1521	-26.271
0.603	24.90	100.0587	4.1519	-26.257
0.612	24.94	100.0539	4.1517	-26.243
0.620	24.99	100.0491	4.1515	-26.229
0.628	25.03	100.0442	4.1513	-26.215
0.637	25.07	100.0394	4.1511	-26.202
0.645	25.11	100.0345	4.1509	-26.189
0.653	25.15	100.0296	4.1507	-26.177
0.662	25.20	100.0247	4.1505	-26.164
0.670	25.24	100.0198	4.1503	-26.151
0.678	25.28	100.0150	4.1501	-26.139
0.687	25.33	100.0101	4.1499	-26.126
0.695	25.37	100.0053	4.1497	-26.113
0.703	25.42	100.0004	4.1495	-26.099
0.712	25.46	99.9957	4.1493	-26.086
0.720	25.51	99.9909	4.1491	-26.074
0.728	25.56	99.9862	4.1489	-26.062
0.737	25.60	99.9816	4.1487	-26.049
0.745	25.65	99.9770	4.1485	-26.037
0.753	25.70	99.9724	4.1483	-26.026
0.762	25.75	99.9678	4.1481	-26.015
0.770	25.80	99.9633	4.1480	-26.004
0.778	25.84	99.9589	4.1478	-25.994
0.787	25.89	99.9544	4.1476	-25.985
0.795	25.94	99.9500	4.1474	-25.975
0.803	25.99	99.9457	4.1472	-25.964
0.812	26.05	99.9415	4.1470	-25.954
0.820	26.10	99.9372	4.1469	-25.943
0.828	26.15	99.9331	4.1467	-25.932
0.837	26.20	99.9290	4.1465	-25.921
0.845	26.25	99.9249	4.1464	-25.910
0.853	26.31	99.9210	4.1462	-25.897
0.862	26.36	99.9171	4.1460	-25.884
0.870	26.41	99.9134	4.1459	-25.870
0.878	26.47	99.9097	4.1457	-25.856
0.887	26.52	99.9061	4.1456	-25.841
0.895	26.58	99.9025	4.1454	-25.826
0.903	26.63	99.8990	4.1453	-25.811
0.912	26.69	99.8956	4.1451	-25.796
0.920	26.75	99.8922	4.1450	-25.779
0.928	26.80	99.8889	4.1449	-25.762
0.937	26.86	99.8856	4.1447	-25.746
0.945	26.92	99.8823	4.1446	-25.730
0.953	26.98	99.8790	4.1445	-25.712
0.962	27.04	99.8759	4.1443	-25.694
0.970	27.10	99.8727	4.1442	-25.676
0.978	27.16	99.8697	4.1441	-25.656
0.987	27.22	99.8667	4.1439	-25.636
0.995	27.28	99.8637	4.1438	-25.613
1.003	27.34	99.8608	4.1437	-25.592
1.012	27.40	99.8579	4.1436	-25.570
1.020	27.46	99.8550	4.1435	-25.545
1.028	27.53	99.8522	4.1433	-25.521
1.037	27.59	99.8494	4.1432	-25.497
1.045	27.65	99.8466	4.1431	-25.472
1.053	27.72	99.8438	4.1430	-25.446
1.062	27.78	99.8410	4.1429	-25.421
1.070	27.85	99.8383	4.1428	-25.395
1.078	27.91	99.8356	4.1427	-25.369
1.087	27.98	99.8329	4.1425	-25.342
1.095	28.05	99.8303	4.1424	-25.314
1.103	28.11	99.8276	4.1423	-25.284
1.112	28.18	99.8250	4.1422	-25.253
1.120	28.25	99.8224	4.1421	-25.220
1.128	28.32	99.8198	4.1420	-25.188
1.137	28.38	99.8172	4.1419	-25.156
1.145	28.45	99.8146	4.1418	-25.122
1.153	28.52	99.8119	4.1417	-25.087
1.162	28.59	99.8093	4.1416	-25.050
1.170	28.66	99.8067	4.1415	-25.014
1.178	28.73	99.8041	4.1413	-24.977
1.187	28.81	99.8015	4.1412	-24.941
1.195	28.88	99.7990	4.1411	-24.903
1.203	28.95	99.7964	4.1410	-24.866
1.212	29.02	99.7937	4.1409	-24.828
1.220	29.09	99.7911	4.1408	-24.789
1.228	29.17	99.7884	4.1407	-24.748
1.237	29.24	99.7858	4.1406	-24.708
1.245	29.31	99.7832	4.1405	-24.668
1.253	29.39	99.7805	4.1404	-24.626
1.262	29.46	99.7777	4.1403	-24.583
1.270	29.54	99.7749	4.1401	-24.538
1.278	29.61	99.7721	4.1400	-24.495
1.287	29.69	99.7693	4.1399	-24.451
1.295	29.76	99.7664	4.1398	-24.405
1.303	29.84	99.7635	4.1397	-24.359
1.312	29.92	99.7606	4.1395	-24.314
1.320	29.99	99.7576	4.1394	-24.268
1.328	30.07	99.7546	4.1393	-24.220
1.337	30.15	99.7515	4.1392	-24.173
1.345	30.23	99.7485	4.1390	-24.125
1.353	30.31	99.7454	4.1389	-24.077
1.362	30.39	99.7423	4.1388	-24.029
1.370	30.47	99.7392	4.1387	-23.980
1.378	30.55	99.7361	4.1385	-23.930
1.387	30.63	99.7330	4.1384	-23.879
1.395	30.71	99.7299	4.1383	-23.826
1.403	30.79	99.7267	4.1381	-23.774
1.412	30.87	99.7236	4.1380	-23.721
1.420	30.95	99.7204	4.1379	-23.669
1.428	31.03	99.7172	4.1377	-23.616
1.437	31.11	99.7140	4.1376	-23.564
1.445	31.19	99.7108	4.1375	-23.511
1.453	31.27	99.7080	4.1374	-23.457
1.462	31.36	99.7057	4.1373	-23.403
1.470	31.44	99.7036	4.1372	-23.348
1.478	31.52	99.7017	4.1371	-23.294
1.487	31.61	99.6998	4.1370	-23.239
1.495	31.69	99.6979	4.1369	-23.184
1.503	31.78	99.6958	4.1369	-23.128
1.512	31.86	99.6937	4.1368	-23.072
1.520	31.94	99.6916	4.1367	-23.014
1.528	32.03	99.6893	4.1366	-22.955
1.537	32.11	99.6865	4.1365	-22.897
1.545	32.20	99.6833	4.1363	-22.839
1.553	32.29	99.6797	4.1362	-22.780
1.562	32.37	99.6758	4.1360	-22.722
1.570	32.46	99.6719	4.1359	-22.663
1.578	32.54	99.6680	4.1357	-22.603
1.587	32.63	99.6641	4.1355	-22.543
1.595	32.72	99.6601	4.1354	-22.482
1.603	32.80	99.6562	4.1352	-22.421
1.612	32.89	99.6522	4.1350	-22.361
1.620	32.98	99.6483	4.1349	-22.301
1.628	33.07	99.6443	4.1347	-22.241
1.637	33.15	99.6404	4.1346	-22.181
1.645	33.24	99.6364	4.1344	-22.120
1.653	33.33	99.6325	4.1342	-22.059
1.662	33.42	99.6285	4.1341	-21.997
1.670	33.51	99.6244	4.1339	-21.935
1.678	33.60	99.6204	4.1337	-21.873
1.687	33.68	99.6164	4.1336	-21.811
1.695	33.77	99.6123	4.1334	-21.748
1.703	33.86	99.6083	4.1332	-21.684
1.712	33.95	99.6043	4.1331	-21.620
1.720	34.04	99.6002	4.1329	-21.556
1.728	34.13	99.5961	4.1327	-21.491
1.737	34.22	99.5920	4.1325	-21.427
1.745	34.31	99.5879	4.1324	-21.363
1.753	34.40	99.5838	4.1322	-21.298
1.762	34.49	99.5796	4.1320	-21.233
1.770	34.58	99.5755	4.1319	-21.167
1.778	34.67	99.5713	4.1317	-21.101
1.787	34.76	99.5671	4.1315	-21.035
1.795	34.85	99.5629	4.1313	-20.969
1.803	34.94	99.5586	4.1312	-20.903
1.812	35.04	99.5544	4.1310	-20.838
1.820	35.13	99.5502	4.1308	-20.769
1.828	35.22	99.5459	4.1306	-20.702
1.837	35.31	99.5417	4.1305	-20.635
1.845	35.40	99.5374	4.1303	-20.568
1.853	35.49	99.5331	4.1301	-20.501
1.862	35.59	99.5288	4.1299	-20.434
1.870	35.68	99.5245	4.1297	-20.367
1.878	35.77	99.5202	4.1296	-20.299
1.887	35.86	99.5160	4.1294	-20.231
1.895	35.96	99.5117	4.1292	-20.163
1.903	36.05	99.5074	4.1290	-20.097
1.912	36.14	99.5031	4.1289	-20.029
1.920	36.23	99.4987	4.1287	-19.962
1.928	36.33	99.4944	4.1285	-19.894
1.937	36.42	99.4900	4.1283	-19.827
1.945	36.51	99.4856	4.1281	-19.759
1.953	36.61	99.4812	4.1280	-19.690
1.962	36.70	99.4768	4.1278	-19.623
1.970	36.79	99.4724	4.1276	-19.555
1.978	36.89	99.4679	4.1274	-19.486
1.987	36.98	99.4633	4.1272	-19.418
1.995	37.07	99.4588	4.1270	-19.349
2.003	37.17	99.4543	4.1268	-19.279
2.012	37.26	99.4497	4.1266	-19.210
2.020	37.35	99.4452	4.1265	-19.141
2.028	37.45	99.4406	4.1263	-19.073
2.037	37.54	99.4360	4.1261	-19.005
2.045	37.63	99.4313	4.1259	-18.936
2.053	37.73	99.4267	4.1257	-18.866
2.062	37.82	99.4220	4.1255	-18.798
2.070	37.92	99.4173	4.1253	-18.730
2.078	38.01	99.4126	4.1251	-18.660
2.087	38.10	99.4079	4.1249	-18.592
2.095	38.20	99.4032	4.1247	-18.523
2.103	38.29	99.3984	4.1245	-18.454
2.112	38.38	99.3937	4.1243	-18.384
2.120	38.48	99.3889	4.1241	-18.312
2.128	38.57	99.3842	4.1239	-18.242
2.137	38.67	99.3794	4.1237	-18.173
2.145	38.76	99.3746	4.1235	-18.101
2.153	38.85	99.3698	4.1233	-18.030
2.162	38.95	99.3650	4.1231	-17.961
2.170	39.04	99.3602	4.1229	-17.890
2.178	39.14	99.3553	4.1227	-17.820
2.187	39.23	99.3506	4.1225	-17.748
2.195	39.33	99.3458	4.1223	-17.678
2.203	39.42	99.3410	4.1221	-17.609
2.212	39.51	99.3361	4.1219	-17.538
2.220	39.61	99.3313	4.1217	-17.468
2.228	39.70	99.3264	4.1215	-17.397
2.237	39.80	99.3216	4.1213	-17.327
2.245	39.89	99.3167	4.1211	-17.257
2.253	39.98	99.3118	4.1209	-17.187
2.262	40.08	99.3069	4.1207	-17.118
2.270	40.17	99.3019	4.1205	-17.048
2.278	40.27	99.2968	4.1203	-16.978
2.287	40.36	99.2918	4.1201	-16.908
2.295	40.46	99.2867	4.1199	-16.838
2.303	40.55	99.2816	4.1197	-16.768
2.312	40.64	99.2765	4.1195	-16.699
2.320	40.74	99.2713	4.1192	-16.629
2.328	40.83	99.2661	4.1190	-16.558
2.337	40.93	99.2609	4.1188	-16.489
2.345	41.02	99.2557	4.1186	-16.419
2.353	41.11	99.2505	4.1184	-16.350
2.362	41.21	99.2452	4.1182	-16.280
2.370	41.30	99.2400	4.1179	-16.210
2.378	41.40	99.2347	4.1177	-16.140
2.387	41.49	99.2294	4.1175	-16.070
2.395	41.58	99.2242	4.1173	-16.001
2.403	41.68	99.2188	4.1171	-15.931
2.412	41.77	99.2135	4.1168	-15.861
2.420	41.87	99.2082	4.1166	-15.792
2.428	41.96	99.2028	4.1164	-15.722
2.437	42.05	99.1975	4.1162	-15.652
2.445	42.15	99.1921	4.1160	-15.583
2.453	42.24	99.1867	4.1157	-15.514
2.462	42.33	99.1813	4.1155	-15.445
2.470	42.43	99.1759	4.1153	-15.376
2.478	42.52	99.1705	4.1151	-15.306
2.487	42.61	99.1650	4.1148	-15.237
2.495	42.71	99.1596	4.1146	-15.169
2.503	42.80	99.1541	4.1144	-15.100
2.512	42.90	99.1486	4.1141	-15.031
2.520	42.99	99.1431	4.1139	-14.963
2.528	43.08	99.1376	4.1137	-14.895
2.537	43.18	99.1320	4.1135	-14.827
2.545	43.27	99.1265	4.1132	-14.760
2.553	43.36	99.1209	4.1130	-14.692
2.562	43.46	99.1153	4.1128	-14.624
2.570	43.55	99.1096	4.1125	-14.556
2.578	43.64	99.1040	4.1123	-14.489
2.587	43.73	99.0983	4.1121	-14.421
2.595	43.83	99.0926	4.1118	-14.354
2.603	43.92	99.0869	4.1116	-14.286
2.612	44.01	99.0812	4.1113	-14.218
2.620	44.11	99.0754	4.1111	-14.151
2.628	44.20	99.0697	4.1109	-14.084
2.637	44.29	99.0639	4.1106	-14.016
2.645	44.38	99.0581	4.1104	-13.949
2.653	44.48	99.0523	4.1102	-13.883
2.662	44.57	99.0465	4.1099	-13.815
2.670	44.66	99.0407	4.1097	-13.748
2.678	44.75	99.0349	4.1094	-13.681
2.687	44.85	99.0290	4.1092	-13.614
2.695	44.94	99.0232	4.1089	-13.547
2.703	45.03	99.0173	4.1087	-13.480
2.712	45.12	99.0114	4.1085	-13.414
2.720	45.21	99.0055	4.1082	-13.347
2.728	45.31	98.9996	4.1080	-13.280
2.737	45.40	98.9936	4.1077	-13.214
2.745	45.49	98.9877	4.1075	-13.148
2.753	45.58	98.9817	4.1072	-13.081
2.762	45.68	98.9757	4.1070	-13.016
2.770	45.77	98.9696	4.1067	-12.951
2.778	45.86	98.9636	4.1065	-12.885
2.787	45.95	98.9576	4.1062	-12.820
2.795	46.04	98.9516	4.1060	-12.754
2.803	46.13	98.9455	4.1057	-12.689
2.812	46.22	98.9394	4.1055	-12.624
2.820	46.31	98.9334	4.1052	-12.559
2.828	46.41	98.9273	4.1050	-12.495
2.837	46.50	98.9212	4.1047	-12.430
2.845	46.59	98.9151	4.1045	-12.366
2.853	46.68	98.9090	4.1042	-12.302
2.862	46.77	98.9029	4.1040	-12.239
2.870	46.86	98.8967	4.1037	-12.175
2.878	46.95	98.8906	4.1034	-12.110
2.887	47.04	98.8844	4.1032	-12.047
2.895	47.13	98.8783	4.1029	-11.983
2.903	47.22	98.8721	4.1027	-11.919
2.912	47.31	98.8659	4.1024	-11.855
2.920	47.41	98.8597	4.1022	-11.792
2.928	47.50	98.8535	4.1019	-11.728
2.937	47.59	98.8472	4.1016	-11.664
2.945	47.68	98.8410	4.1014	-11.601
2.953	47.77	98.8347	4.1011	-11.538
2.962	47.86	98.8285	4.1009	-11.474
2.970	47.95	98.8222	4.1006	-11.412
2.978	48.04	98.8159	4.1003	-11.350
2.987	48.13	98.8096	4.1001	-11.289
2.995	48.22	98.8033	4.0998	-11.229
3.003	48.31	98.7970	4.0996	-11.168
3.012	48.40	98.7906	4.0993	-11.106
3.020	48.49	98.7843	4.0990	-11.045
3.028	48.58	98.7779	4.0988	-10.984
3.037	48.67	98.7715	4.0985	-10.923
3.045	48.76	98.7651	4.0982	-10.862
3.053	48.85	98.7587	4.0980	-10.801
3.062	48.93	98.7523	4.0977	-10.740
3.070	49.02	98.7458	4.0974	-10.678
3.078	49.11	98.7394	4.0972	-10.616
3.087	49.20	98.7329	4.0969	-10.556
3.095	49.29	98.7265	4.0966	-10.496
3.103	49.38	98.7200	4.0964	-10.437
3.112	49.47	98.7135	4.0961	-10.376
3.120	49.56	98.7070	4.0958	-10.316
3.128	49.65	98.7005	4.0956	-10.258
3.137	49.74	98.6940	4.0953	-10.199
3.145	49.83	98.6875	4.0950	-10.140
3.153	49.91	98.6810	4.0947	-10.081
3.162	50.00	98.6745	4.0945	-10.022
3.170	50.09	98.6680	4.0942	-9.962
3.178	50.18	98.6615	4.0939	-9.903
3.187	50.27	98.6549	4.0937	-9.845
3.195	50.36	98.6484	4.0934	-9.786
3.203	50.45	98.6418	4.0931	-9.728
3.212	50.53	98.6353	4.0928	-9.669
3.220	50.62	98.6287	4.0926	-9.611
3.228	50.71	98.6222	4.0923	-9.552
3.237	50.80	98.6156	4.0920	-9.495
3.245	50.89	98.6090	4.0918	-9.438
3.253	50.98	98.6024	4.0915	-9.381
3.262	51.06	98.5958	4.0912	-9.323
3.270	51.15	98.5892	4.0909	-9.265
3.278	51.24	98.5826	4.0907	-9.209
3.287	51.33	98.5759	4.0904	-9.151
3.295	51.42	98.5693	4.0901	-9.093
3.303	51.50	98.5626	4.0898	-9.037
3.312	51.59	98.5560	4.0896	-8.979
3.320	51.68	98.5493	4.0893	-8.922
3.328	51.77	98.5426	4.0890	-8.865
3.337	51.85	98.5360	4.0887	-8.808
3.345	51.94	98.5293	4.0884	-8.750
3.353	52.03	98.5226	4.0882	-8.694
3.362	52.12	98.5159	4.0879	-8.638
3.370	52.20	98.5091	4.0876	-8.583
3.378	52.29	98.5024	4.0873	-8.528
3.387	52.38	98.4957	4.0871	-8.473
3.395	52.47	98.4890	4.0868	-8.419
3.403	52.55	98.4823	4.0865	-8.365
3.412	52.64	98.4756	4.0862	-8.311
3.420	52.73	98.4689	4.0859	-8.258
3.428	52.81	98.4622	4.0857	-8.204
3.437	52.90	98.4554	4.0854	-8.150
3.445	52.99	98.4487	4.0851	-8.094
3.453	53.07	98.4420	4.0848	-8.039
3.462	53.16	98.4352	4.0845	-7.984
3.470	53.25	98.4285	4.0843	-7.929
3.478	53.33	98.4218	4.0840	-7.874
3.487	53.42	98.4150	4.0837	-7.818
3.495	53.51	98.4083	4.0834	-7.764
3.503	53.59	98.4015	4.0831	-7.709
3.512	53.68	98.3948	4.0829	-7.656
3.520	53.77	98.3881	4.0826	-7.604
3.528	53.85	98.3813	4.0823	-7.551
3.537	53.94	98.3746	4.0820	-7.498
3.545	54.03	98.3678	4.0818	-7.446
3.553	54.11	98.3611	4.0815	-7.393
3.562	54.20	98.3544	4.0812	-7.340
3.570	54.29	98.3477	4.0809	-7.287
3.578	54.37	98.3410	4.0806	-7.235
3.587	54.46	98.3343	4.0804	-7.182
3.595	54.55	98.3276	4.0801	-7.129
3.603	54.63	98.3208	4.0798	-7.077
3.612	54.72	98.3141	4.0795	-7.025
3.620	54.80	98.3074	4.0792	-6.973
3.628	54.89	98.3007	4.0790	-6.921
3.637	54.98	98.2939	4.0787	-6.870
3.645	55.06	98.2872	4.0784	-6.818
3.653	55.15	98.2804	4.0781	-6.767
3.662	55.23	98.2737	4.0778	-6.716
3.670	55.32	98.2669	4.0776	-6.665
3.678	55.40	98.2602	4.0773	-6.615
3.687	55.49	98.2534	4.0770	-6.564
3.695	55.58	98.2466	4.0767	-6.512
3.703	55.66	98.2399	4.0764	-6.461
3.712	55.75	98.2331	4.0762	-6.410
3.720	55.83	98.2264	4.0759	-6.360
3.728	55.92	98.2196	4.0756	-6.311
3.737	56.00	98.2129	4.0753	-6.261
3.745	56.09	98.2062	4.0750	-6.212
3.753	56.18	98.1995	4.0748	-6.162
3.762	56.26	98.1927	4.0745	-6.112
3.770	56.35	98.1861	4.0742	-6.063
3.778	56.43	98.1794	4.0739	-6.014
3.787	56.52	98.1727	4.0737	-5.964
3.795	56.60	98.1660	4.0734	-5.914
3.803	56.69	98.1594	4.0731	-5.864
3.812	56.78	98.1527	4.0728	-5.814
3.820	56.86	98.1461	4.0725	-5.765
3.828	56.95	98.1394	4.0723	-5.714
3.837	57.03	98.1327	4.0720	-5.665
3.845	57.12	98.1261	4.0717	-5.616
3.853	57.20	98.1194	4.0714	-5.567
3.862	57.29	98.1128	4.0712	-5.518
3.870	57.37	98.1061	4.0709	-5.471
3.878	57.46	98.0995	4.0706	-5.424
3.887	57.54	98.0929	4.0703	-5.378
3.895	57.63	98.0862	4.0701	-5.331
3.903	57.71	98.0796	4.0698	-5.285
3.912	57.80	98.0730	4.0695	-5.239
3.920	57.88	98.0664	4.0692	-5.191
3.928	57.97	98.0598	4.0690	-5.145
3.937	58.05	98.0532	4.0687	-5.098
3.945	58.14	98.0466	4.0684	-5.051
3.953	58.22	98.0401	4.0682	-5.003
3.962	58.31	98.0335	4.0679	-4.955
3.970	58.40	98.0270	4.0676	-4.907
3.978	58.48	98.0205	4.0673	-4.860
3.987	58.57	98.0140	4.0671	-4.812
3.995	58.65	98.0075	4.0668	-4.766
4.003	58.74	98.0010	4.0665	-4.721
4.012	58.82	97.9945	4.0663	-4.674
4.020	58.91	97.9881	4.0660	-4.627
4.028	58.99	97.9816	4.0657	-4.581
4.037	59.08	97.9752	4.0655	-4.534
4.045	59.16	97.9687	4.0652	-4.488
4.053	59.25	97.9623	4.0649	-4.441
4.062	59.33	97.9558	4.0647	-4.393
4.070	59.42	97.9494	4.0644	-4.346
4.078	59.50	97.9430	4.0641	-4.299
4.087	59.59	97.9365	4.0639	-4.251
4.095	59.67	97.9301	4.0636	-4.204
4.103	59.76	97.9238	4.0633	-4.158
4.112	59.84	97.9176	4.0631	-4.112
4.120	59.93	97.9115	4.0628	-4.068
4.128	60.01	97.9053	4.0626	-4.022
4.137	60.10	97.8993	4.0623	-3.976
4.145	60.18	97.8933	4.0621	-3.932
4.153	60.27	97.8873	4.0618	-3.888
4.162	60.35	97.8813	4.0616	-3.843
4.170	60.44	97.8754	4.0613	-3.797
4.178	60.52	97.8696	4.0611	-3.753
4.187	60.61	97.8639	4.0608	-3.707
4.195	60.69	97.8581	4.0606	-3.662
4.203	60.78	97.8523	4.0604	-3.617
4.212	60.86	97.8463	4.0601	-3.574
4.220	60.95	97.8404	4.0599	-3.532
4.228	61.03	97.8343	4.0596	-3.489
4.237	61.12	97.8283	4.0594	-3.444
4.245	61.20	97.8223	4.0591	-3.401
4.253	61.29	97.8161	4.0589	-3.359
4.262	61.37	97.8099	4.0586	-3.316
4.270	61.46	97.8036	4.0583	-3.274
4.278	61.54	97.7972	4.0581	-3.231
4.287	61.63	97.7909	4.0578	-3.189
4.295	61.71	97.7847	4.0576	-3.146
4.303	61.80	97.7784	4.0573	-3.103
4.312	61.88	97.7722	4.0570	-3.060
4.320	61.96	97.7661	4.0568	-3.020
4.328	62.05	97.7599	4.0565	-2.978
4.337	62.14	97.7538	4.0563	-2.936
4.345	62.22	97.7477	4.0560	-2.894
4.353	62.30	97.7416	4.0558	-2.851
4.362	62.39	97.7355	4.0555	-2.809
4.370	62.47	97.7295	4.0553	-2.766
4.378	62.56	97.7234	4.0550	-2.724
4.387	62.64	97.7174	4.0548	-2.681
4.395	62.73	97.7113	4.0545	-2.639
4.403	62.81	97.7053	4.0543	-2.596
4.412	62.90	97.6993	4.0540	-2.553
4.420	62.98	97.6933	4.0538	-2.511
4.428	63.07	97.6873	4.0535	-2.468
4.437	63.15	97.6814	4.0533	-2.426
4.445	63.24	97.6755	4.0530	-2.385
4.453	63.32	97.6696	4.0528	-2.343
4.462	63.41	97.6637	4.0525	-2.301
4.470	63.49	97.6578	4.0523	-2.260
4.478	63.58	97.6520	4.0520	-2.219
4.487	63.66	97.6462	4.0518	-2.178
4.495	63.75	97.6405	4.0516	-2.138
4.503	63.83	97.6347	4.0513	-2.097
4.512	63.92	97.6290	4.0511	-2.057
4.520	64.00	97.6233	4.0509	-2.017
4.528	64.09	97.6176	4.0506	-1.976
4.537	64.17	97.6120	4.0504	-1.936
4.545	64.26	97.6063	4.0502	-1.897
4.553	64.34	97.6007	4.0499	-1.856
4.562	64.43	97.5952	4.0497	-1.816
4.570	64.51	97.5897	4.0495	-1.776
4.578	64.60	97.5844	4.0492	-1.736
4.587	64.68	97.5792	4.0490	-1.696
4.595	64.77	97.5740	4.0488	-1.656
4.603	64.85	97.5688	4.0486	-1.616
4.612	64.94	97.5636	4.0484	-1.577
4.620	65.02	97.5584	4.0482	-1.539
4.628	65.11	97.5532	4.0479	-1.499
4.637	65.19	97.5480	4.0477	-1.459
4.645	65.28	97.5428	4.0475	-1.419
4.653	65.36	97.5375	4.0473	-1.379
4.662	65.45	97.5321	4.0471	-1.341
4.670	65.53	97.5266	4.0468	-1.302
4.678	65.62	97.5212	4.0466	-1.263
4.687	65.70	97.5157	4.0464	-1.223
4.695	65.79	97.5103	4.0462	-1.183
4.703	65.87	97.5049	4.0459	-1.143
4.712	65.96	97.4995	4.0457	-1.104
4.720	66.04	97.4941	4.0455	-1.066
4.728	66.13	97.4888	4.0453	-1.026
4.737	66.21	97.4835	4.0451	-0.987
4.745	66.30	97.4782	4.0448	-0.949
4.753	66.38	97.4730	4.0446	-0.910
4.762	66.47	97.4678	4.0444	-0.871
4.770	66.55	97.4626	4.0442	-0.833
4.778	66.64	97.4574	4.0440	-0.795
4.787	66.72	97.4523	4.0438	-0.757
4.795	66.81	97.4471	4.0435	-0.718
4.803	66.89	97.4420	4.0433	-0.681
4.812	66.98	97.4369	4.0431	-0.644
4.820	67.07	97.4319	4.0429	-0.606
4.828	67.15	97.4268	4.0427	-0.568
4.837	67.24	97.4218	4.0425	-0.531
4.845	67.32	97.4168	4.0423	-0.493
4.853	67.41	97.4118	4.0421	-0.457
4.862	67.49	97.4068	4.0419	-0.418
4.870	67.58	97.4019	4.0417	-0.381
4.878	67.66	97.3969	4.0415	-0.345
4.887	67.75	97.3920	4.0413	-0.308
4.895	67.83	97.3871	4.0411	-0.270
4.903	67.92	97.3822	4.0409	-0.234
4.912	68.00	97.3774	4.0407	-0.197
4.920	68.09	97.3725	4.0405	-0.159
4.928	68.17	97.3677	4.0403	-0.123
4.937	68.26	97.3629	4.0401	-0.085
4.945	68.34	97.3581	4.0399	-0.048
4.953	68.43	97.3534	4.0397	-0.012
4.962	68.52	97.3487	4.0395	0.025
4.970	68.60	97.3440	4.0393	0.061
4.978	68.69	97.3394	4.0391	0.097
4.987	68.77	97.3348	4.0389	0.133
4.995	68.86	97.3303	4.0387	0.168
5.003	68.94	97.3258	4.0385	0.202
5.012	69.03	97.3213	4.0383	0.237
5.020	69.11	97.3168	4.0381	0.271
5.028	69.20	97.3123	4.0380	0.305
5.037	69.29	97.3079	4.0378	0.341
5.045	69.37	97.3035	4.0376	0.375
5.053	69.46	97.2991	4.0374	0.410
5.062	69.54	97.2946	4.0372	0.445
5.070	69.63	97.2902	4.0370	0.479
5.078	69.71	97.2857	4.0368	0.514
5.087	69.80	97.2813	4.0367	0.549
5.095	69.88	97.2769	4.0365	0.583
5.103	69.97	97.2725	4.0363	0.618
5.112	70.06	97.2681	4.0361	0.653
5.120	70.14	97.2637	4.0359	0.687
5.128	70.23	97.2594	4.0358	0.722
5.137	70.31	97.2550	4.0356	0.757
5.145	70.40	97.2508	4.0354	0.791
5.153	70.48	97.2465	4.0352	0.826
5.162	70.57	97.2422	4.0350	0.860
5.170	70.65	97.2380	4.0349	0.894
5.178	70.74	97.2338	4.0347	0.929
5.187	70.83	97.2296	4.0345	0.963
5.195	70.91	97.2254	4.0343	0.997
5.203	71.00	97.2213	4.0342	1.031
5.212	71.08	97.2171	4.0340	1.065
5.220	71.17	97.2130	4.0338	1.098
5.228	71.25	97.2088	4.0337	1.132
5.237	71.34	97.2047	4.0335	1.164
5.245	71.43	97.2006	4.0333	1.197
5.253	71.51	97.1965	4.0331	1.230
5.262	71.60	97.1925	4.0330	1.262
5.270	71.68	97.1884	4.0328	1.294
5.278	71.77	97.1844	4.0326	1.327
5.287	71.86	97.1804	4.0325	1.359
5.295	71.94	97.1765	4.0323	1.390
5.303	72.03	97.1726	4.0322	1.422
5.312	72.11	97.1688	4.0320	1.453
5.320	72.20	97.1651	4.0318	1.486
5.328	72.28	97.1614	4.0317	1.517
5.337	72.37	97.1578	4.0315	1.548
5.345	72.46	97.1541	4.0314	1.580
5.353	72.54	97.1506	4.0312	1.611
5.362	72.63	97.1470	4.0311	1.643
5.370	72.71	97.1435	4.0309	1.676
5.378	72.80	97.1400	4.0308	1.708
5.387	72.88	97.1365	4.0307	1.741
5.395	72.97	97.1330	4.0305	1.773
5.403	73.06	97.1295	4.0304	1.804
5.412	73.14	97.1260	4.0302	1.837
5.420	73.23	97.1225	4.0301	1.869
5.428	73.31	97.1191	4.0299	1.899
5.437	73.40	97.1156	4.0298	1.930
5.445	73.49	97.1121	4.0296	1.960
5.453	73.57	97.1085	4.0295	1.990
5.462	73.66	97.1050	4.0294	2.022
5.470	73.74	97.1016	4.0292	2.053
5.478	73.83	97.0980	4.0291	2.083
5.487	73.92	97.0944	4.0289	2.116
5.495	74.00	97.0908	4.0288	2.147
5.503	74.09	97.0872	4.0286	2.179
5.512	74.17	97.0836	4.0285	2.211
5.520	74.26	97.0801	4.0283	2.242
5.528	74.35	97.0766	4.0282	2.274
5.537	74.43	97.0731	4.0280	2.305
5.545	74.52	97.0696	4.0279	2.336
5.553	74.61	97.0661	4.0277	2.367
5.562	74.69	97.0627	4.0276	2.399
5.570	74.78	97.0593	4.0275	2.430
5.578	74.86	97.0558	4.0273	2.459
5.587	74.95	97.0524	4.0272	2.489
5.595	75.04	97.0490	4.0270	2.519
5.603	75.12	97.0457	4.0269	2.549
5.612	75.21	97.0423	4.0267	2.580
5.620	75.29	97.0390	4.0266	2.609
5.628	75.38	97.0357	4.0265	2.639
5.637	75.47	97.0324	4.0263	2.668
5.645	75.55	97.0291	4.0262	2.698
5.653	75.64	97.0259	4.0261	2.726
5.662	75.73	97.0227	4.0259	2.754
5.670	75.81	97.0195	4.0258	2.783
5.678	75.90	97.0163	4.0257	2.812
5.687	75.99	97.0131	4.0255	2.840
5.695	76.07	97.0100	4.0254	2.868
5.703	76.16	97.0069	4.0253	2.897
5.712	76.24	97.0038	4.0251	2.926
5.720	76.33	97.0007	4.0250	2.954
5.728	76.42	96.9976	4.0249	2.982
5.737	76.50	96.9946	4.0248	3.012
5.745	76.59	96.9916	4.0246	3.042
5.753	76.68	96.9887	4.0245	3.070
5.762	76.76	96.9857	4.0244	3.098
5.770	76.85	96.9828	4.0243	3.126
5.778	76.94	96.9798	4.0242	3.154
5.787	77.02	96.9769	4.0240	3.181
5.795	77.11	96.9741	4.0239	3.209
5.803	77.20	96.9712	4.0238	3.236
5.812	77.28	96.9684	4.0237	3.264
5.820	77.37	96.9656	4.0236	3.290
5.828	77.46	96.9628	4.0234	3.317
5.837	77.54	96.9600	4.0233	3.345
5.845	77.63	96.9573	4.0232	3.372
5.853	77.71	96.9545	4.0231	3.401
5.862	77.80	96.9518	4.0230	3.428
5.870	77.89	96.9491	4.0229	3.455
5.878	77.97	96.9464	4.0228	3.482
5.887	78.06	96.9437	4.0227	3.510
5.895	78.15	96.9411	4.0225	3.537
5.903	78.23	96.9384	4.0224	3.563
5.912	78.32	96.9357	4.0223	3.590
5.920	78.40	96.9331	4.0222	3.616
5.928	78.49	96.9305	4.0221	3.642
5.937	78.58	96.9279	4.0220	3.667
5.945	78.66	96.9253	4.0219	3.693
5.953	78.75	96.9227	4.0218	3.719
5.962	78.84	96.9202	4.0217	3.745
5.970	78.92	96.9177	4.0216	3.771
5.978	79.01	96.9151	4.0215	3.797
5.987	79.10	96.9127	4.0214	3.822
5.995	79.18	96.9102	4.0213	3.847
6.003	79.27	96.9077	4.0212	3.873
6.012	79.36	96.9053	4.0211	3.900
6.020	79.44	96.9029	4.0210	3.926
6.028	79.53	96.9005	4.0209	3.951
6.037	79.62	96.8981	4.0208	3.977
6.045	79.70	96.8958	4.0207	4.000
6.053	79.79	96.8934	4.0206	4.024
6.062	79.87	96.8911	4.0205	4.049
6.070	79.96	96.8888	4.0204	4.074
6.078	80.05	96.8865	4.0203	4.099
6.087	80.13	96.8842	4.0202	4.124
6.095	80.22	96.8819	4.0201	4.148
6.103	80.31	96.8797	4.0200	4.172
6.112	80.39	96.8774	4.0199	4.197
6.120	80.48	96.8752	4.0198	4.220
6.128	80.57	96.8730	4.0197	4.245
6.137	80.65	96.8708	4.0196	4.271
6.145	80.74	96.8686	4.0195	4.296
6.153	80.83	96.8664	4.0194	4.321
6.162	80.91	96.8643	4.0194	4.344
6.170	81.00	96.8622	4.0193	4.368
6.178	81.09	96.8601	4.0192	4.392
6.187	81.17	96.8581	4.0191	4.416
6.195	81.26	96.8562	4.0190	4.441
6.203	81.35	96.8544	4.0190	4.465
6.212	81.43	96.8527	4.0189	4.489
6.220	81.52	96.8509	4.0188	4.513
6.228	81.61	96.8492	4.0187	4.536
6.237	81.69	96.8475	4.0187	4.559
6.245	81.78	96.8458	4.0186	4.583
6.253	81.87	96.8440	4.0185	4.607
6.262	81.95	96.8422	4.0184	4.631
6.270	82.04	96.8404	4.0184	4.653
6.278	82.13	96.8385	4.0183	4.676
6.287	82.21	96.8365	4.0182	4.700
6.295	82.30	96.8345	4.0181	4.723
6.303	82.39	96.8325	4.0180	4.746
6.312	82.47	96.8305	4.0180	4.770
6.320	82.56	96.8285	4.0179	4.793
6.328	82.65	96.8266	4.0178	4.815
6.337	82.73	96.8246	4.0177	4.837
6.345	82.82	96.8228	4.0176	4.859
6.353	82.90	96.8209	4.0176	4.880
6.362	82.99	96.8190	4.0175	4.901
6.370	83.08	96.8171	4.0174	4.921
6.378	83.16	96.8152	4.0173	4.941
6.387	83.25	96.8134	4.0172	4.962
6.395	83.34	96.8115	4.0172	4.983
6.403	83.42	96.8097	4.0171	5.003
6.412	83.51	96.8078	4.0170	5.025
6.420	83.60	96.8060	4.0169	5.046
6.428	83.68	96.8042	4.0169	5.068
6.437	83.77	96.8024	4.0168	5.089
6.445	83.86	96.8006	4.0167	5.112
6.453	83.94	96.7988	4.0166	5.134
6.462	84.03	96.7971	4.0166	5.156
6.470	84.12	96.7953	4.0165	5.175
6.478	84.21	96.7936	4.0164	5.196
6.487	84.29	96.7919	4.0164	5.217
6.495	84.38	96.7902	4.0163	5.238
6.503	84.46	96.7885	4.0162	5.258
6.512	84.55	96.7869	4.0161	5.278
6.520	84.64	96.7853	4.0161	5.299
6.528	84.72	96.7837	4.0160	5.318
6.537	84.81	96.7821	4.0159	5.338
6.545	84.90	96.7805	4.0159	5.358
6.553	84.98	96.7789	4.0158	5.379
6.562	85.07	96.7773	4.0158	5.400
6.570	85.16	96.7758	4.0157	5.420
6.578	85.24	96.7742	4.0156	5.440
6.587	85.33	96.7727	4.0156	5.459
6.595	85.42	96.7712	4.0155	5.479
6.603	85.50	96.7697	4.0154	5.498
6.612	85.59	96.7682	4.0154	5.517
6.620	85.68	96.7668	4.0153	5.536
6.628	85.76	96.7653	4.0153	5.554
6.637	85.85	96.7639	4.0152	5.573
6.645	85.94	96.7625	4.0151	5.592
6.653	86.02	96.7611	4.0151	5.610
6.662	86.11	96.7597	4.0150	5.629
6.670	86.20	96.7583	4.0150	5.649
6.678	86.28	96.7569	4.0149	5.668
6.687	86.37	96.7556	4.0149	5.687
6.695	86.46	96.7542	4.0148	5.707
6.703	86.54	96.7529	4.0147	5.728
6.712	86.63	96.7515	4.0147	5.747
6.720	86.71	96.7502	4.0146	5.766
6.728	86.80	96.7489	4.0146	5.784
6.737	86.89	96.7476	4.0145	5.802
6.745	86.97	96.7463	4.0145	5.819
6.753	87.06	96.7450	4.0144	5.837
6.762	87.15	96.7438	4.0144	5.853
6.770	87.23	96.7425	4.0143	5.870
6.778	87.32	96.7413	4.0143	5.887
6.787	87.41	96.7401	4.0142	5.904
6.795	87.49	96.7388	4.0142	5.923
6.803	87.58	96.7377	4.0141	5.940
6.812	87.67	96.7365	4.0141	5.958
6.820	87.75	96.7353	4.0140	5.977
6.828	87.84	96.7341	4.0140	5.995
6.837	87.93	96.7330	4.0139	6.014
6.845	88.01	96.7318	4.0139	6.034
6.853	88.10	96.7307	4.0138	6.053
6.862	88.19	96.7297	4.0138	6.071
6.870	88.27	96.7286	4.0137	6.089
6.878	88.36	96.7275	4.0137	6.106
6.887	88.44	96.7265	4.0136	6.123
6.895	88.53	96.7254	4.0136	6.140
6.903	88.62	96.7243	4.0136	6.157
6.912	88.70	96.7233	4.0135	6.173
6.920	88.79	96.7223	4.0135	6.188
6.928	88.88	96.7213	4.0134	6.203
6.937	88.96	96.7202	4.0134	6.219
6.945	89.05	96.7192	4.0133	6.235
6.953	89.13	96.7181	4.0133	6.252
6.962	89.22	96.7171	4.0133	6.269
6.970	89.31	96.7161	4.0132	6.286
6.978	89.39	96.7151	4.0132	6.303
6.987	89.48	96.7140	4.0131	6.319
6.995	89.57	96.7131	4.0131	6.336
7.003	89.65	96.7121	4.0130	6.354
7.012	89.74	96.7112	4.0130	6.370
7.020	89.83	96.7102	4.0130	6.387
7.028	89.91	96.7093	4.0129	6.403
7.037	90.00	96.7084	4.0129	6.418
7.045	90.09	96.7075	4.0129	6.433
7.053	90.17	96.7066	4.0128	6.447
7.062	90.26	96.7057	4.0128	6.460
7.070	90.34	96.7049	4.0127	6.474
7.078	90.43	96.7040	4.0127	6.489
7.087	90.52	96.7031	4.0127	6.502
7.095	90.60	96.7023	4.0126	6.516
7.103	90.69	96.7016	4.0126	6.529
7.112	90.78	96.7010	4.0126	6.544
7.120	90.86	96.7008	4.0126	6.558
7.128	90.95	96.7010	4.0126	6.573
7.137	91.03	96.7013	4.0126	6.588
7.145	91.12	96.7017	4.0126	6.602
7.153	91.21	96.7022	4.0126	6.617
7.162	91.29	96.7027	4.0127	6.630
7.170	91.38	96.7031	4.0127	6.644
7.178	91.47	96.7034	4.0127	6.657
7.187	91.55	96.7036	4.0127	6.671
7.195	91.64	96.7035	4.0127	6.684
7.203	91.73	96.7031	4.0127	6.697
7.212	91.81	96.7024	4.0126	6.710
7.220	91.90	96.7014	4.0126	6.723
7.228	91.98	96.7003	4.0126	6.736
7.237	92.07	96.6991	4.0125	6.749
7.245	92.16	96.6980	4.0125	6.763
7.253	92.24	96.6969	4.0124	6.777
7.262	92.33	96.6958	4.0124	6.791
7.270	92.41	96.6947	4.0123	6.805
7.278	92.50	96.6937	4.0123	6.818
7.287	92.59	96.6926	4.0122	6.831
7.295	92.67	96.6916	4.0122	6.845
7.303	92.76	96.6906	4.0122	6.859
7.312	92.85	96.6896	4.0121	6.872
7.320	92.93	96.6886	4.0121	6.884
7.328	93.02	96.6877	4.0120	6.897
7.337	93.11	96.6868	4.0120	6.909
7.345	93.19	96.6858	4.0120	6.922
7.353	93.28	96.6849	4.0119	6.934
7.362	93.36	96.6840	4.0119	6.947
7.370	93.45	96.6831	4.0118	6.959
7.378	93.54	96.6823	4.0118	6.972
7.387	93.62	96.6814	4.0118	6.984
7.395	93.71	96.6806	4.0117	6.996
7.403	93.79	96.6798	4.0117	7.009
7.412	93.88	96.6790	4.0117	7.021
7.420	93.97	96.6782	4.0116	7.033
7.428	94.05	96.6774	4.0116	7.045
7.437	94.14	96.6766	4.0116	7.057
7.445	94.22	96.6759	4.0115	7.068
7.453	94.31	96.6752	4.0115	7.080
7.462	94.40	96.6745	4.0115	7.091
7.470	94.48	96.6739	4.0115	7.102
7.478	94.57	96.6733	4.0114	7.113
7.487	94.65	96.6727	4.0114	7.124
7.495	94.74	96.6722	4.0114	7.135
7.503	94.83	96.6716	4.0114	7.145
7.512	94.91	96.6711	4.0113	7.155
7.520	95.00	96.6705	4.0113	7.165
7.528	95.08	96.6700	4.0113	7.175
7.537	95.17	96.6695	4.0113	7.184
7.545	95.26	96.6690	4.0113	7.195
7.553	95.34	96.6686	4.0112	7.205
7.562	95.43	96.6682	4.0112	7.215
7.570	95.51	96.6679	4.0112	7.225
7.578	95.60	96.6676	4.0112	7.236
7.587	95.68	96.6674	4.0112	7.247
7.595	95.77	96.6672	4.0112	7.257
7.603	95.86	96.6671	4.0112	7.268
7.612	95.94	96.6670	4.0112	7.278
7.620	96.03	96.6668	4.0112	7.287
7.628	96.12	96.6666	4.0112	7.297
7.637	96.20	96.6663	4.0111	7.306
7.645	96.29	96.6659	4.0111	7.315
7.653	96.37	96.6654	4.0111	7.324
7.662	96.46	96.6649	4.0111	7.332
7.670	96.55	96.6644	4.0111	7.342
7.678	96.63	96.6638	4.0110	7.352
7.687	96.72	96.6632	4.0110	7.363
7.695	96.80	96.6625	4.0110	7.374
7.703	96.89	96.6619	4.0110	7.385
7.712	96.98	96.6612	4.0109	7.395
7.720	97.06	96.6606	4.0109	7.404
7.728	97.15	96.6600	4.0109	7.414
7.737	97.23	96.6594	4.0109	7.423
7.745	97.32	96.6589	4.0108	7.432
7.753	97.41	96.6584	4.0108	7.439
7.762	97.49	96.6579	4.0108	7.446
7.770	97.58	96.6574	4.0108	7.452
7.778	97.66	96.6570	4.0108	7.458
7.787	97.75	96.6566	4.0107	7.464
7.795	97.83	96.6562	4.0107	7.471
7.803	97.92	96.6558	4.0107	7.477
7.812	98.01	96.6554	4.0107	7.485
7.820	98.09	96.6549	4.0107	7.492
7.828	98.18	96.6545	4.0107	7.499
7.837	98.26	96.6541	4.0106	7.507
7.845	98.35	96.6537	4.0106	7.515
7.853	98.44	96.6532	4.0106	7.523
7.862	98.52	96.6527	4.0106	7.531
7.870	98.61	96.6523	4.0106	7.538
7.878	98.69	96.6518	4.0105	7.545
7.887	98.78	96.6514	4.0105	7.553
7.895	98.86	96.6509	4.0105	7.560
7.903	98.95	96.6505	4.0105	7.567
7.912	99.04	96.6500	4.0105	7.574
7.920	99.12	96.6496	4.0105	7.580
7.928	99.21	96.6491	4.0104	7.587
7.937	99.29	96.6487	4.0104	7.594
7.945	99.38	96.6483	4.0104	7.600
7.953	99.46	96.6479	4.0104	7.607
7.962	99.55	96.6475	4.0104	7.615
7.970	99.64	96.6471	4.0103	7.622
7.978	99.72	96.6467	4.0103	7.629
7.987	99.81	96.6463	4.0103	7.636
7.995	99.89	96.6459	4.0103	7.644
8.003	99.98	96.6456	4.0103	7.651
8.012	100.06	96.6452	4.0103	7.657
8.020	100.15	96.6449	4.0103	7.664
8.028	100.24	96.6445	4.0102	7.670
8.037	100.32	96.6442	4.0102	7.676
8.045	100.41	96.6439	4.0102	7.682
8.053	100.49	96.6436	4.0102	7.688
8.062	100.58	96.6434	4.0102	7.693
8.070	100.67	96.6432	4.0102	7.699
8.078	100.75	96.6429	4.0102	7.704
8.087	100.84	96.6428	4.0102	7.710
8.095	100.92	96.6426	4.0102	7.715
8.103	101.01	96.6425	4.0102	7.721
8.112	101.09	96.6424	4.0102	7.726
8.120	101.18	96.6423	4.0101	7.732
8.128	101.27	96.6421	4.0101	7.737
8.137	101.35	96.6419	4.0101	7.743
8.145	101.44	96.6417	4.0101	7.749
8.153	101.52	96.6415	4.0101	7.754
8.162	101.61	96.6413	4.0101	7.760
8.170	101.70	96.6411	4.0101	7.765
8.178	101.78	96.6408	4.0101	7.770
8.187	101.87	96.6405	4.0101	7.775
8.195	101.95	96.6402	4.0101	7.780
8.203	102.04	96.6399	4.0100	7.785
8.212	102.12	96.6395	4.0100	7.791
8.220	102.21	96.6393	4.0100	7.796
8.228	102.30	96.6390	4.0100	7.801
8.237	102.38	96.6387	4.0100	7.806
8.245	102.47	96.6384	4.0100	7.812
8.253	102.55	96.6381	4.0100	7.817
8.262	102.64	96.6378	4.0100	7.822
8.270	102.72	96.6376	4.0100	7.828
8.278	102.81	96.6373	4.0099	7.833
8.287	102.90	96.6370	4.0099	7.838
8.295	102.98	96.6368	4.0099	7.842
8.303	103.07	96.6365	4.0099	7.846
8.312	103.15	96.6363	4.0099	7.850
8.320	103.24	96.6360	4.0099	7.853
8.328	103.32	96.6357	4.0099	7.855
8.337	103.41	96.6355	4.0099	7.858
8.345	103.50	96.6353	4.0099	7.861
8.353	103.58	96.6350	4.0098	7.864
8.362	103.67	96.6347	4.0098	7.867
8.370	103.75	96.6345	4.0098	7.870
8.378	103.84	96.6342	4.0098	7.874
8.387	103.92	96.6340	4.0098	7.878
8.395	104.01	96.6337	4.0098	7.882
8.403	104.10	96.6335	4.0098	7.887
8.412	104.18	96.6332	4.0098	7.891
8.420	104.27	96.6330	4.0098	7.895
8.428	104.35	96.6327	4.0098	7.900
8.437	104.44	96.6324	4.0097	7.903
8.445	104.52	96.6322	4.0097	7.907
8.453	104.61	96.6320	4.0097	7.910
8.462	104.70	96.6317	4.0097	7.913
8.470	104.78	96.6315	4.0097	7.916
8.478	104.87	96.6313	4.0097	7.918
8.487	104.95	96.6310	4.0097	7.920
8.495	105.04	96.6308	4.0097	7.923
8.503	105.12	96.6306	4.0097	7.925
8.512	105.21	96.6304	4.0097	7.927
8.520	105.29	96.6302	4.0096	7.930
8.528	105.38	96.6300	4.0096	7.932
8.537	105.47	96.6298	4.0096	7.935
8.545	105.55	96.6296	4.0096	7.938
8.553	105.64	96.6294	4.0096	7.941
8.562	105.72	96.6292	4.0096	7.943
8.570	105.81	96.6290	4.0096	7.946
8.578	105.89	96.6288	4.0096	7.948
8.587	105.98	96.6286	4.0096	7.951
8.595	106.07	96.6284	4.0096	7.953
8.603	106.15	96.6282	4.0096	7.955
8.612	106.24	96.6280	4.0096	7.957
8.620	106.32	96.6278	4.0095	7.959
8.628	106.41	96.6276	4.0095	7.961
8.637	106.49	96.6274	4.0095	7.963

[step]
Isothermal 30.0 min
Time	Temperature	Weight	Weight	Heat Flow
min	°C	%	mg	mW
8.645	106.58	96.6272	4.0095	7.965
8.670	106.84	96.6267	4.0095	7.970
8.695	107.09	96.6262	4.0095	7.978
8.720	107.35	96.6257	4.0095	7.986
8.745	107.60	96.6252	4.0094	7.996
8.770	107.86	96.6247	4.0094	8.008
8.795	108.11	96.6243	4.0094	8.025
8.820	108.36	96.6239	4.0094	8.048
8.845	108.60	96.6235	4.0094	8.072
8.870	108.84	96.6230	4.0093	8.102
8.895	109.08	96.6225	4.0093	8.134
8.920	109.31	96.6220	4.0093	8.171
8.945	109.54	96.6219	4.0093	8.211
8.970	109.77	96.6218	4.0093	8.254
8.995	109.98	96.6216	4.0093	8.303
9.020	110.20	96.6213	4.0093	8.355
9.045	110.41	96.6212	4.0093	8.411
9.070	110.61	96.6211	4.0093	8.472
9.095	110.80	96.6208	4.0093	8.536
9.120	110.99	96.6201	4.0092	8.604
9.145	111.18	96.6191	4.0092	8.678
9.170	111.35	96.6181	4.0091	8.750
9.195	111.52	96.6170	4.0091	8.827
9.220	111.69	96.6160	4.0091	8.901
9.245	111.85	96.6151	4.0090	8.978
9.270	112.00	96.6145	4.0090	9.055
9.295	112.14	96.6142	4.0090	9.131
9.320	112.28	96.6138	4.0090	9.210
9.345	112.41	96.6132	4.0089	9.293
9.370	112.53	96.6122	4.0089	9.376
9.395	112.65	96.6113	4.0089	9.462
9.420	112.76	96.6105	4.0088	9.549
9.445	112.86	96.6098	4.0088	9.639
9.470	112.95	96.6094	4.0088	9.731
9.495	113.04	96.6089	4.0088	9.821
9.520	113.12	96.6086	4.0088	9.908
9.545	113.19	96.6084	4.0087	9.993
9.570	113.26	96.6088	4.0088	10.079
9.595	113.32	96.6095	4.0088	10.164
9.620	113.37	96.6102	4.0088	10.250
9.645	113.42	96.6104	4.0088	10.332
9.670	113.46	96.6096	4.0088	10.414
9.695	113.49	96.6080	4.0087	10.492
9.720	113.52	96.6062	4.0087	10.567
9.745	113.55	96.6048	4.0086	10.638
9.770	113.57	96.6043	4.0086	10.705
9.795	113.58	96.6040	4.0086	10.769
9.820	113.59	96.6035	4.0085	10.834
9.845	113.60	96.6020	4.0085	10.897
9.870	113.60	96.6001	4.0084	10.957
9.895	113.59	96.5982	4.0083	11.014
9.920	113.58	96.5965	4.0082	11.068
9.945	113.57	96.5949	4.0082	11.119
9.970	113.56	96.5934	4.0081	11.167
9.995	113.54	96.5920	4.0081	11.211
10.020	113.52	96.5906	4.0080	11.250
10.045	113.49	96.5891	4.0079	11.286
10.070	113.46	96.5876	4.0079	11.319
10.095	113.43	96.5862	4.0078	11.350
10.120	113.40	96.5848	4.0078	11.376
10.145	113.37	96.5835	4.0077	11.396
10.170	113.33	96.5824	4.0077	11.413
10.195	113.30	96.5817	4.0076	11.426
10.220	113.26	96.5809	4.0076	11.436
10.245	113.22	96.5803	4.0076	11.444
10.270	113.18	96.5795	4.0075	11.449
10.295	113.14	96.5790	4.0075	11.453
10.320	113.10	96.5788	4.0075	11.455
10.345	113.06	96.5786	4.0075	11.456
10.370	113.02	96.5782	4.0075	11.457
10.395	112.98	96.5779	4.0075	11.457
10.420	112.94	96.5773	4.0075	11.455
10.445	112.90	96.5767	4.0074	11.452
10.470	112.86	96.5760	4.0074	11.448
10.495	112.82	96.5753	4.0074	11.442
10.520	112.78	96.5750	4.0074	11.434
10.545	112.74	96.5751	4.0074	11.420
10.570	112.70	96.5754	4.0074	11.401
10.595	112.66	96.5753	4.0074	11.380
10.620	112.63	96.5747	4.0073	11.358
10.645	112.59	96.5738	4.0073	11.340
10.670	112.55	96.5729	4.0073	11.319
10.695	112.51	96.5721	4.0072	11.298
10.720	112.48	96.5712	4.0072	11.272
10.745	112.44	96.5705	4.0072	11.245
10.770	112.41	96.5703	4.0072	11.220
10.795	112.38	96.5701	4.0072	11.195
10.820	112.35	96.5702	4.0072	11.173
10.845	112.31	96.5700	4.0071	11.150
10.870	112.28	96.5698	4.0071	11.125
10.895	112.25	96.5703	4.0072	11.099
10.920	112.23	96.5706	4.0072	11.071
10.945	112.20	96.5711	4.0072	11.044
10.970	112.18	96.5714	4.0072	11.017
10.995	112.15	96.5719	4.0072	10.992
11.020	112.13	96.5722	4.0072	10.969
11.045	112.11	96.5721	4.0072	10.945
11.070	112.09	96.5713	4.0072	10.919
11.095	112.07	96.5708	4.0072	10.894
11.120	112.05	96.5707	4.0072	10.867
11.145	112.03	96.5705	4.0072	10.841
11.170	112.02	96.5704	4.0072	10.815
11.195	112.01	96.5697	4.0071	10.792
11.220	111.99	96.5687	4.0071	10.773
11.245	111.98	96.5677	4.0071	10.753
11.270	111.97	96.5669	4.0070	10.734
11.295	111.96	96.5661	4.0070	10.710
11.320	111.95	96.5658	4.0070	10.685
11.345	111.95	96.5664	4.0070	10.662
11.370	111.94	96.5675	4.0070	10.643
11.395	111.94	96.5684	4.0071	10.625
11.420	111.94	96.5684	4.0071	10.604
11.445	111.93	96.5677	4.0071	10.582
11.470	111.93	96.5669	4.0070	10.562
11.495	111.93	96.5662	4.0070	10.543
11.520	111.93	96.5656	4.0070	10.525
11.545	111.94	96.5650	4.0069	10.509
[...]
118.637	949.75	1.9681	0.0817	100.523
118.645	949.75	1.9680	0.0817	100.535
118.653	949.75	1.9680	0.0817	100.547
118.662	949.75	1.9679	0.0817	100.559
118.670	949.75	1.9679	0.0817	100.571
118.678	949.75	1.9678	0.0817	100.582
118.687	949.75	1.9677	0.0817	100.593
118.695	949.75	1.9677	0.0816	100.603
118.703	949.75	1.9676	0.0816	100.613
118.712	949.75	1.9676	0.0816	100.624
118.720	949.75	1.9675	0.0816	100.635
118.728	949.75	1.9674	0.0816	100.646
118.737	949.75	1.9673	0.0816	100.657
118.745	949.75	1.9673	0.0816	100.668
118.753	949.75	1.9672	0.0816	100.680
118.762	949.76	1.9671	0.0816	100.692
118.770	949.76	1.9671	0.0816	100.705
118.778	949.76	1.9670	0.0816	100.716
118.787	949.76	1.9670	0.0816	100.728
118.795	949.76	1.9670	0.0816	100.740
118.803	949.76	1.9669	0.0816	100.751
118.812	949.76	1.9668	0.0816	100.760
118.820	949.76	1.9668	0.0816	100.770
118.828	949.76	1.9667	0.0816	100.780
118.837	949.76	1.9667	0.0816	100.789
118.845	949.76	1.9666	0.0816	100.798
118.853	949.76	1.9665	0.0816	100.807
118.862	949.76	1.9664	0.0816	100.817
118.870	949.76	1.9664	0.0816	100.827
118.878	949.76	1.9663	0.0816	100.837
118.887	949.76	1.9662	0.0816	100.847
118.895	949.76	1.9661	0.0816	100.858
118.903	949.76	1.9661	0.0816	100.868
118.912	949.76	1.9660	0.0816	100.877
118.920	949.77	1.9659	0.0816	100.887
118.928	949.77	1.9658	0.0816	100.895
118.937	949.77	1.9657	0.0816	100.904
118.945	949.77	1.9657	0.0816	100.911
118.953	949.77	1.9656	0.0816	100.918
118.962	949.77	1.9655	0.0816	100.925
118.970	949.77	1.9655	0.0816	100.931
118.978	949.77	1.9654	0.0816	100.938
118.987	949.77	1.9653	0.0816	100.945
118.995	949.77	1.9653	0.0815	100.953
119.003	949.77	1.9652	0.0815	100.961
119.012	949.77	1.9652	0.0815	100.969
119.020	949.77	1.9652	0.0815	100.977
119.028	949.77	1.9651	0.0815	100.987
119.037	949.77	1.9650	0.0815	100.997
119.045	949.77	1.9650	0.0815	101.008
119.053	949.77	1.9649	0.0815	101.018
119.062	949.77	1.9648	0.0815	101.028
119.070	949.77	1.9648	0.0815	101.038
119.078	949.77	1.9647	0.0815	101.048
119.087	949.78	1.9646	0.0815	101.058
119.095	949.78	1.9646	0.0815	101.068
119.103	949.78	1.9645	0.0815	101.078
119.112	949.78	1.9644	0.0815	101.087
119.120	949.78	1.9643	0.0815	101.096
119.128	949.78	1.9643	0.0815	101.105
119.137	949.78	1.9642	0.0815	101.114
119.145	949.78	1.9641	0.0815	101.123
119.153	949.78	1.9640	0.0815	101.131
119.162	949.78	1.9639	0.0815	101.140
119.170	949.78	1.9638	0.0815	101.148
119.178	949.78	1.9637	0.0815	101.156
119.187	949.78	1.9636	0.0815	101.163
119.195	949.78	1.9635	0.0815	101.171
119.203	949.78	1.9634	0.0815	101.178
119.212	949.78	1.9632	0.0815	101.186
119.220	949.78	1.9631	0.0815	101.194
119.228	949.78	1.9630	0.0815	101.203
119.237	949.78	1.9629	0.0815	101.211
119.245	949.78	1.9628	0.0814	101.220
119.253	949.78	1.9628	0.0814	101.229
119.262	949.78	1.9627	0.0814	101.239
119.270	949.78	1.9626	0.0814	101.249
119.278	949.79	1.9626	0.0814	101.258
119.287	949.79	1.9625	0.0814	101.268
119.295	949.79	1.9624	0.0814	101.277
119.303	949.79	1.9624	0.0814	101.287
119.312	949.79	1.9623	0.0814	101.296
119.320	949.79	1.9623	0.0814	101.305
119.328	949.79	1.9623	0.0814	101.314
119.337	949.79	1.9622	0.0814	101.323
119.345	949.79	1.9621	0.0814	101.331
119.353	949.79	1.9621	0.0814	101.339
119.362	949.79	1.9620	0.0814	101.347
119.370	949.79	1.9620	0.0814	101.354
119.378	949.79	1.9619	0.0814	101.361
119.387	949.79	1.9618	0.0814	101.368
119.395	949.79	1.9618	0.0814	101.376
119.403	949.79	1.9617	0.0814	101.383
119.412	949.79	1.9616	0.0814	101.391
119.420	949.79	1.9616	0.0814	101.400
119.428	949.79	1.9615	0.0814	101.409
119.437	949.79	1.9615	0.0814	101.418
119.445	949.79	1.9614	0.0814	101.428
119.453	949.79	1.9614	0.0814	101.438
119.462	949.80	1.9613	0.0814	101.447
119.470	949.80	1.9613	0.0814	101.457
119.478	949.80	1.9612	0.0814	101.465
119.487	949.80	1.9611	0.0814	101.474
119.495	949.80	1.9611	0.0814	101.482
119.503	949.80	1.9610	0.0814	101.489
119.512	949.80	1.9610	0.0814	101.496
119.520	949.80	1.9609	0.0814	101.502
119.528	949.80	1.9608	0.0814	101.508
119.537	949.80	1.9608	0.0814	101.515
119.545	949.80	1.9607	0.0814	101.522
119.553	949.80	1.9606	0.0814	101.530
119.562	949.80	1.9606	0.0814	101.537
119.570	949.80	1.9605	0.0814	101.545
119.578	949.80	1.9604	0.0813	101.553
119.587	949.80	1.9603	0.0813	101.562
119.595	949.80	1.9603	0.0813	101.571
119.603	949.80	1.9602	0.0813	101.580
119.612	949.80	1.9601	0.0813	101.589
119.620	949.80	1.9600	0.0813	101.597
119.628	949.80	1.9600	0.0813	101.605
119.637	949.80	1.9599	0.0813	101.613
119.645	949.80	1.9598	0.0813	101.620
119.653	949.80	1.9598	0.0813	101.628
119.662	949.80	1.9597	0.0813	101.635
119.670	949.80	1.9597	0.0813	101.642
119.678	949.80	1.9596	0.0813	101.649
119.687	949.81	1.9596	0.0813	101.657
119.695	949.81	1.9595	0.0813	101.664
119.703	949.81	1.9595	0.0813	101.671
119.712	949.81	1.9594	0.0813	101.678
119.720	949.81	1.9594	0.0813	101.685
119.728	949.81	1.9594	0.0813	101.693
119.737	949.81	1.9593	0.0813	101.701
119.745	949.81	1.9593	0.0813	101.708
119.753	949.81	1.9593	0.0813	101.715
119.762	949.81	1.9593	0.0813	101.722
119.770	949.81	1.9592	0.0813	101.729
119.778	949.81	1.9592	0.0813	101.735
119.787	949.81	1.9591	0.0813	101.742
119.795	949.81	1.9591	0.0813	101.749
119.803	949.81	1.9590	0.0813	101.756
119.812	949.81	1.9590	0.0813	101.762
119.820	949.81	1.9589	0.0813	101.768
119.828	949.81	1.9588	0.0813	101.776
119.837	949.81	1.9587	0.0813	101.783
119.845	949.81	1.9587	0.0813	101.791
119.853	949.81	1.9586	0.0813	101.799
119.862	949.81	1.9585	0.0813	101.807
119.870	949.81	1.9584	0.0813	101.814
119.878	949.82	1.9583	0.0813	101.822
119.887	949.82	1.9582	0.0813	101.829
119.895	949.82	1.9581	0.0813	101.836
119.903	949.82	1.9580	0.0812	101.843
119.912	949.82	1.9579	0.0812	101.850
119.920	949.82	1.9578	0.0812	101.856
119.928	949.82	1.9578	0.0812	101.862
119.937	949.82	1.9577	0.0812	101.867
119.945	949.82	1.9576	0.0812	101.872
119.953	949.82	1.9575	0.0812	101.878
119.962	949.82	1.9574	0.0812	101.884
119.970	949.82	1.9573	0.0812	101.890
119.978	949.82	1.9573	0.0812	101.895
119.987	949.82	1.9572	0.0812	101.899
119.995	949.82	1.9571	0.0812	101.904
120.003	949.82	1.9570	0.0812	101.909
120.012	949.82	1.9569	0.0812	101.915
120.020	949.82	1.9568	0.0812	101.921
120.028	949.82	1.9567	0.0812	101.927
120.037	949.82	1.9566	0.0812	101.934
120.045	949.82	1.9565	0.0812	101.941
120.053	949.82	1.9564	0.0812	101.949
120.062	949.82	1.9563	0.0812	101.957
120.070	949.82	1.9562	0.0812	101.966
120.078	949.82	1.9561	0.0812	101.974
120.087	949.82	1.9560	0.0812	101.982
120.095	949.82	1.9559	0.0812	101.989
120.103	949.82	1.9559	0.0812	101.997
120.112	949.82	1.9558	0.0812	102.004
120.120	949.82	1.9557	0.0812	102.011
120.128	949.82	1.9557	0.0812	102.017
120.137	949.82	1.9556	0.0811	102.022
120.145	949.82	1.9556	0.0811	102.028
120.153	949.82	1.9555	0.0811	102.034
120.162	949.83	1.9555	0.0811	102.039
120.170	949.83	1.9554	0.0811	102.044
120.178	949.83	1.9553	0.0811	102.048
120.187	949.83	1.9553	0.0811	102.052
120.195	949.83	1.9552	0.0811	102.057
120.203	949.83	1.9551	0.0811	102.061
120.212	949.83	1.9550	0.0811	102.066
120.220	949.83	1.9549	0.0811	102.071
120.228	949.83	1.9548	0.0811	102.075
120.237	949.83	1.9547	0.0811	102.080
120.245	949.83	1.9546	0.0811	102.085
120.253	949.83	1.9545	0.0811	102.090
120.262	949.83	1.9544	0.0811	102.096
120.270	949.83	1.9543	0.0811	102.102
120.278	949.83	1.9542	0.0811	102.108
120.287	949.83	1.9542	0.0811	102.114
120.295	949.83	1.9541	0.0811	102.120
120.303	949.83	1.9540	0.0811	102.126
120.312	949.83	1.9540	0.0811	102.132
120.320	949.83	1.9539	0.0811	102.138
120.328	949.83	1.9538	0.0811	102.144
120.337	949.83	1.9537	0.0811	102.151
120.345	949.83	1.9537	0.0811	102.157
120.353	949.83	1.9536	0.0811	102.163
120.362	949.83	1.9535	0.0811	102.169
120.370	949.83	1.9534	0.0811	102.174
120.378	949.83	1.9534	0.0811	102.180
120.387	949.83	1.9533	0.0811	102.186
120.395	949.83	1.9532	0.0810	102.191
120.403	949.83	1.9531	0.0810	102.197
120.412	949.83	1.9530	0.0810	102.202
120.420	949.83	1.9529	0.0810	102.206
120.428	949.83	1.9529	0.0810	102.211
120.437	949.83	1.9528	0.0810	102.215
120.445	949.83	1.9527	0.0810	102.221
120.453	949.84	1.9526	0.0810	102.227
120.462	949.84	1.9525	0.0810	102.232
120.470	949.84	1.9525	0.0810	102.237
120.478	949.84	1.9524	0.0810	102.243
120.487	949.84	1.9523	0.0810	102.249
120.495	949.84	1.9522	0.0810	102.254
120.503	949.84	1.9521	0.0810	102.260
120.512	949.84	1.9521	0.0810	102.267
120.520	949.84	1.9520	0.0810	102.273
120.528	949.84	1.9519	0.0810	102.278
120.537	949.84	1.9519	0.0810	102.284
120.545	949.84	1.9518	0.0810	102.290
120.553	949.84	1.9518	0.0810	102.296
120.562	949.84	1.9517	0.0810	102.302
120.570	949.84	1.9517	0.0810	102.308
120.578	949.84	1.9516	0.0810	102.315
120.587	949.84	1.9516	0.0810	102.320
120.595	949.84	1.9515	0.0810	102.326
120.603	949.84	1.9515	0.0810	102.331
120.612	949.84	1.9514	0.0810	102.336
120.620	949.84	1.9513	0.0810	102.340
120.628	949.84	1.9512	0.0810	102.345
120.637	949.84	1.9511	0.0810	102.350
120.645	949.84	1.9510	0.0810	102.356
120.653	949.84	1.9509	0.0810	102.361
120.662	949.84	1.9508	0.0810	102.367
120.670	949.84	1.9508	0.0809	102.373
120.678	949.84	1.9507	0.0809	102.379
120.687	949.84	1.9506	0.0809	102.385
120.695	949.84	1.9505	0.0809	102.391
120.703	949.84	1.9504	0.0809	102.397
120.712	949.84	1.9503	0.0809	102.403
120.720	949.84	1.9503	0.0809	102.409
120.728	949.84	1.9502	0.0809	102.413
120.737	949.84	1.9502	0.0809	102.418
120.745	949.84	1.9501	0.0809	102.422
120.753	949.84	1.9501	0.0809	102.426
120.762	949.84	1.9500	0.0809	102.429
120.770	949.84	1.9500	0.0809	102.432
120.778	949.84	1.9499	0.0809	102.436
120.787	949.84	1.9499	0.0809	102.439
120.795	949.84	1.9498	0.0809	102.443
120.803	949.84	1.9497	0.0809	102.447
120.812	949.85	1.9497	0.0809	102.451
120.820	949.85	1.9496	0.0809	102.455
120.828	949.85	1.9495	0.0809	102.459
120.837	949.85	1.9495	0.0809	102.463
120.845	949.85	1.9494	0.0809	102.467
120.853	949.85	1.9493	0.0809	102.472
120.862	949.85	1.9493	0.0809	102.477
120.870	949.85	1.9492	0.0809	102.481
120.878	949.85	1.9492	0.0809	102.486
120.887	949.85	1.9491	0.0809	102.491
120.895	949.85	1.9490	0.0809	102.496
120.903	949.85	1.9490	0.0809	102.501
120.912	949.85	1.9488	0.0809	102.505
120.920	949.85	1.9487	0.0809	102.510
120.928	949.85	1.9486	0.0809	102.515
120.937	949.85	1.9485	0.0809	102.519
120.945	949.85	1.9483	0.0808	102.523
120.953	949.85	1.9482	0.0808	102.527
120.962	949.85	1.9481	0.0808	102.531
120.970	949.85	1.9479	0.0808	102.534
120.978	949.85	1.9478	0.0808	102.538
120.987	949.85	1.9477	0.0808	102.543
120.995	949.85	1.9476	0.0808	102.548
121.003	949.85	1.9475	0.0808	102.553
121.012	949.85	1.9474	0.0808	102.558
121.020	949.85	1.9474	0.0808	102.563
121.028	949.85	1.9473	0.0808	102.569
121.037	949.85	1.9472	0.0808	102.575
121.045	949.85	1.9471	0.0808	102.581
121.053	949.85	1.9471	0.0808	102.586
121.062	949.85	1.9470	0.0808	102.591
121.070	949.85	1.9469	0.0808	102.596
121.078	949.85	1.9468	0.0808	102.600
121.087	949.85	1.9467	0.0808	102.604
121.095	949.85	1.9466	0.0808	102.608
121.103	949.85	1.9465	0.0808	102.613
121.112	949.85	1.9464	0.0808	102.617
121.120	949.85	1.9463	0.0808	102.621
121.128	949.85	1.9462	0.0808	102.626
121.137	949.85	1.9461	0.0808	102.631
121.145	949.85	1.9460	0.0807	102.637
121.153	949.85	1.9459	0.0807	102.642
121.162	949.85	1.9459	0.0807	102.648
121.170	949.85	1.9458	0.0807	102.653
121.178	949.85	1.9457	0.0807	102.658
121.187	949.85	1.9456	0.0807	102.664
121.195	949.85	1.9455	0.0807	102.669
121.203	949.86	1.9455	0.0807	102.675
121.212	949.86	1.9454	0.0807	102.680
121.220	949.86	1.9454	0.0807	102.685
121.228	949.86	1.9453	0.0807	102.690
121.237	949.86	1.9452	0.0807	102.695
121.245	949.86	1.9452	0.0807	102.700
121.253	949.86	1.9451	0.0807	102.705
121.262	949.86	1.9451	0.0807	102.711
121.270	949.86	1.9450	0.0807	102.717
121.278	949.86	1.9450	0.0807	102.723
121.287	949.86	1.9450	0.0807	102.729
121.295	949.86	1.9449	0.0807	102.735
121.303	949.86	1.9449	0.0807	102.740
121.312	949.86	1.9449	0.0807	102.746
121.320	949.86	1.9448	0.0807	102.752
121.328	949.86	1.9448	0.0807	102.758
121.337	949.86	1.9448	0.0807	102.763
121.345	949.86	1.9447	0.0807	102.769
121.353	949.86	1.9447	0.0807	102.774
121.362	949.86	1.9446	0.0807	102.779
121.370	949.86	1.9446	0.0807	102.785
121.378	949.86	1.9445	0.0807	102.791
121.387	949.86	1.9445	0.0807	102.796
121.395	949.86	1.9444	0.0807	102.801
121.403	949.86	1.9443	0.0807	102.807
121.412	949.86	1.9443	0.0807	102.812
121.420	949.86	1.9442	0.0807	102.817
121.428	949.86	1.9442	0.0807	102.822
121.437	949.86	1.9441	0.0807	102.828
121.445	949.86	1.9441	0.0807	102.832
121.453	949.86	1.9440	0.0807	102.837
121.462	949.86	1.9440	0.0807	102.842
121.470	949.86	1.9440	0.0807	102.847
121.478	949.86	1.9439	0.0807	102.853
121.487	949.86	1.9439	0.0807	102.858
121.495	949.86	1.9439	0.0807	102.863
121.503	949.86	1.9438	0.0807	102.869
121.512	949.86	1.9438	0.0807	102.874
121.520	949.86	1.9438	0.0807	102.878
121.528	949.86	1.9438	0.0807	102.883
121.537	949.86	1.9437	0.0807	102.887
121.545	949.86	1.9437	0.0807	102.891
121.553	949.86	1.9437	0.0807	102.895
121.562	949.86	1.9437	0.0807	102.899
121.570	949.86	1.9437	0.0807	102.903
121.578	949.86	1.9436	0.0806	102.906
121.587	949.86	1.9436	0.0806	102.910
121.595	949.86	1.9435	0.0806	102.914
121.603	949.86	1.9434	0.0806	102.918
121.612	949.86	1.9433	0.0806	102.923
121.620	949.86	1.9433	0.0806	102.927
121.628	949.86	1.9432	0.0806	102.931
121.637	949.86	1.9431	0.0806	102.935
121.645	949.87	1.9430	0.0806	102.939
121.653	949.87	1.9429	0.0806	102.943
121.662	949.87	1.9428	0.0806	102.948
121.670	949.87	1.9427	0.0806	102.952
121.678	949.87	1.9427	0.0806	102.955
121.687	949.87	1.9426	0.0806	102.959
121.695	949.87	1.9426	0.0806	102.963
121.703	949.87	1.9425	0.0806	102.967
121.712	949.87	1.9425	0.0806	102.971
121.720	949.87	1.9424	0.0806	102.975
121.728	949.87	1.9423	0.0806	102.979
121.737	949.87	1.9423	0.0806	102.983
121.745	949.87	1.9422	0.0806	102.987
121.753	949.87	1.9422	0.0806	102.990
121.762	949.87	1.9421	0.0806	102.994
121.770	949.87	1.9421	0.0806	102.998
121.778	949.87	1.9420	0.0806	103.002
121.787	949.87	1.9420	0.0806	103.006
121.795	949.87	1.9419	0.0806	103.010
121.803	949.87	1.9419	0.0806	103.014
121.812	949.87	1.9419	0.0806	103.018
121.820	949.87	1.9418	0.0806	103.022
121.828	949.87	1.9418	0.0806	103.025
121.837	949.87	1.9418	0.0806	103.029
121.845	949.87	1.9417	0.0806	103.033
121.853	949.87	1.9417	0.0806	103.036
121.862	949.87	1.9416	0.0806	103.039
121.870	949.87	1.9416	0.0806	103.041
121.878	949.87	1.9415	0.0806	103.044
121.887	949.87	1.9415	0.0806	103.045
121.895	949.87	1.9414	0.0806	103.047
121.903	949.87	1.9413	0.0806	103.050
121.912	949.87	1.9413	0.0806	103.052
121.920	949.87	1.9412	0.0806	103.055
121.928	949.87	1.9411	0.0805	103.057
121.937	949.87	1.9411	0.0805	103.060
121.945	949.87	1.9410	0.0805	103.063
121.953	949.87	1.9410	0.0805	103.066
121.962	949.87	1.9409	0.0805	103.069
121.970	949.87	1.9408	0.0805	103.072
121.978	949.87	1.9408	0.0805	103.076
121.987	949.87	1.9407	0.0805	103.079
121.995	949.87	1.9406	0.0805	103.083
122.003	949.87	1.9405	0.0805	103.087
122.012	949.87	1.9404	0.0805	103.091
122.020	949.87	1.9403	0.0805	103.095
122.028	949.87	1.9402	0.0805	103.099
122.037	949.87	1.9401	0.0805	103.103
122.045	949.87	1.9400	0.0805	103.107
122.053	949.87	1.9399	0.0805	103.111
122.062	949.87	1.9398	0.0805	103.115
122.070	949.87	1.9397	0.0805	103.119
122.078	949.87	1.9395	0.0805	103.122
122.087	949.87	1.9394	0.0805	103.126
122.095	949.87	1.9393	0.0805	103.129
122.103	949.87	1.9392	0.0805	103.133
122.112	949.87	1.9391	0.0805	103.137
122.120	949.87	1.9390	0.0805	103.142
122.128	949.87	1.9389	0.0805	103.147
122.137	949.88	1.9388	0.0804	103.151
122.145	949.88	1.9387	0.0804	103.156
122.153	949.88	1.9386	0.0804	103.161
122.162	949.88	1.9385	0.0804	103.167
122.170	949.88	1.9385	0.0804	103.171
122.178	949.88	1.9384	0.0804	103.176
122.187	949.88	1.9384	0.0804	103.182
122.195	949.88	1.9383	0.0804	103.188
122.203	949.88	1.9383	0.0804	103.193
122.212	949.88	1.9382	0.0804	103.198
122.220	949.88	1.9382	0.0804	103.202
122.228	949.88	1.9381	0.0804	103.206
122.237	949.88	1.9380	0.0804	103.211
122.245	949.88	1.9379	0.0804	103.216
122.253	949.88	1.9378	0.0804	103.220
122.262	949.88	1.9377	0.0804	103.225
122.270	949.88	1.9376	0.0804	103.230
122.278	949.88	1.9375	0.0804	103.234
122.287	949.88	1.9375	0.0804	103.238
122.295	949.88	1.9374	0.0804	103.242
122.303	949.88	1.9373	0.0804	103.246
122.312	949.88	1.9373	0.0804	103.249
122.320	949.88	1.9372	0.0804	103.253
122.328	949.88	1.9372	0.0804	103.256
122.337	949.88	1.9371	0.0804	103.259
122.345	949.88	1.9370	0.0804	103.261
122.353	949.88	1.9369	0.0804	103.263
122.362	949.88	1.9368	0.0804	103.265
122.370	949.88	1.9368	0.0804	103.267
122.378	949.88	1.9367	0.0804	103.269
122.387	949.88	1.9366	0.0804	103.271
122.395	949.88	1.9364	0.0804	103.273
122.403	949.88	1.9363	0.0803	103.275
122.412	949.88	1.9362	0.0803	103.278
122.420	949.88	1.9361	0.0803	103.280
122.428	949.88	1.9360	0.0803	103.283
122.437	949.88	1.9359	0.0803	103.286
122.445	949.88	1.9359	0.0803	103.288
122.453	949.88	1.9358	0.0803	103.291
122.462	949.88	1.9357	0.0803	103.295
122.470	949.88	1.9356	0.0803	103.298
122.478	949.88	1.9356	0.0803	103.302
122.487	949.88	1.9355	0.0803	103.306
122.495	949.88	1.9354	0.0803	103.310
122.503	949.88	1.9354	0.0803	103.314
122.512	949.88	1.9353	0.0803	103.318
122.520	949.88	1.9352	0.0803	103.322
122.528	949.88	1.9352	0.0803	103.326
122.537	949.88	1.9351	0.0803	103.330
122.545	949.88	1.9350	0.0803	103.334
122.553	949.88	1.9350	0.0803	103.337
122.562	949.88	1.9349	0.0803	103.341
122.570	949.88	1.9348	0.0803	103.344
122.578	949.88	1.9348	0.0803	103.348
122.587	949.88	1.9347	0.0803	103.351
122.595	949.88	1.9346	0.0803	103.355
122.603	949.88	1.9345	0.0803	103.359
122.612	949.88	1.9345	0.0803	103.363
122.620	949.88	1.9344	0.0803	103.367
122.628	949.88	1.9343	0.0803	103.371
122.637	949.88	1.9343	0.0803	103.375
122.645	949.88	1.9342	0.0803	103.379
122.653	949.88	1.9341	0.0803	103.383
122.662	949.88	1.9341	0.0803	103.387
122.670	949.88	1.9340	0.0803	103.391
122.678	949.88	1.9340	0.0802	103.394
122.687	949.88	1.9339	0.0802	103.396
122.695	949.88	1.9338	0.0802	103.399
122.703	949.88	1.9338	0.0802	103.402
122.712	949.88	1.9337	0.0802	103.404
122.720	949.88	1.9337	0.0802	103.406
122.728	949.88	1.9336	0.0802	103.409
122.737	949.89	1.9335	0.0802	103.411
122.745	949.89	1.9335	0.0802	103.414
122.753	949.89	1.9334	0.0802	103.417
122.762	949.89	1.9333	0.0802	103.420
122.770	949.89	1.9332	0.0802	103.423
122.778	949.89	1.9332	0.0802	103.427
122.787	949.89	1.9331	0.0802	103.430
122.795	949.89	1.9330	0.0802	103.433
122.803	949.89	1.9329	0.0802	103.437
122.812	949.89	1.9329	0.0802	103.440
122.820	949.89	1.9328	0.0802	103.442
122.828	949.89	1.9327	0.0802	103.445
122.837	949.89	1.9327	0.0802	103.448
122.845	949.89	1.9326	0.0802	103.451
122.853	949.89	1.9325	0.0802	103.455
122.862	949.89	1.9325	0.0802	103.458
122.870	949.89	1.9324	0.0802	103.461
122.878	949.89	1.9324	0.0802	103.465
122.887	949.89	1.9324	0.0802	103.469
122.895	949.89	1.9323	0.0802	103.473
122.903	949.89	1.9323	0.0802	103.477
122.912	949.89	1.9322	0.0802	103.481
122.920	949.89	1.9322	0.0802	103.485
122.928	949.89	1.9321	0.0802	103.489
122.937	949.89	1.9320	0.0802	103.493
122.945	949.89	1.9320	0.0802	103.498
122.953	949.89	1.9319	0.0802	103.502
122.962	949.89	1.9319	0.0802	103.506
122.970	949.89	1.9318	0.0802	103.510
122.978	949.89	1.9317	0.0802	103.514
122.987	949.89	1.9317	0.0802	103.518
122.995	949.89	1.9316	0.0802	103.522
123.003	949.89	1.9315	0.0801	103.526
123.012	949.89	1.9315	0.0801	103.531
123.020	949.89	1.9314	0.0801	103.535
123.028	949.89	1.9313	0.0801	103.539
123.037	949.89	1.9313	0.0801	103.543
123.045	949.89	1.9312	0.0801	103.547
123.053	949.89	1.9311	0.0801	103.551
123.062	949.89	1.9311	0.0801	103.555
123.070	949.89	1.9310	0.0801	103.559
123.078	949.89	1.9310	0.0801	103.562
123.087	949.89	1.9309	0.0801	103.565
123.095	949.89	1.9308	0.0801	103.568
123.103	949.89	1.9308	0.0801	103.570
123.112		1.9307	0.0801
123.120		1.9306	0.0801
123.128		1.9306	0.0801
123.137		1.9305	0.0801
123.145		1.9304	0.0801