File: PSO Kinetics/data/softwood-50Kmin_1.txt
Filename	softwood-50Kmin_1
Instrument name	0650-0369 (192.168.1.2)
Operator	ca527
rundate	1/8/2023
Sample name	softwood-50Kmin_1
proceduresegments	Select Gas: Gas 1 ; Ramp 10.00 °C/min to 110.00 °C; Isothermal 30.0 min; Ramp 50.00 °C/min to 900.00 °C; Isothermal 30.0 min; Select Gas: Gas 2 ; Ramp 10.00 °C/min to 950.00 °C; Isothermal 10.0 min; Data Off ; Equilibrate 30.00 °C
[step]
Ramp 10.00 °C/min to 110.00 °C
Time	Temperature	Weight	Weight	Heat Flow
min	°C	%	mg	mW
0.003		99.9970	5.2782
0.012		99.9979	5.2782
0.020		100.0017	5.2784
0.028		100.0070	5.2787
0.037		100.0133	5.2790
0.045	20.07	100.0204	5.2794	-22.945
0.053	20.07	100.0281	5.2798	-22.946
0.062	20.07	100.0362	5.2803	-22.947
0.070	20.06	100.0446	5.2807	-22.949
0.078	20.06	100.0529	5.2811	-22.951
0.087	20.05	100.0593	5.2815	-22.953
0.095	20.05	100.0624	5.2816	-22.955
0.103	20.05	100.0635	5.2817	-22.957
0.112	20.04	100.0637	5.2817	-22.960
0.120	20.04	100.0635	5.2817	-22.963
0.128	20.04	100.0629	5.2817	-22.967
0.137	20.04	100.0621	5.2816	-22.971
0.145	20.03	100.0610	5.2816	-22.975
0.153	20.03	100.0597	5.2815	-22.980
0.162	20.03	100.0581	5.2814	-22.985
0.170	20.03	100.0564	5.2813	-22.991
0.178	20.02	100.0545	5.2812	-22.997
0.187	20.02	100.0523	5.2811	-23.004
0.195	20.02	100.0500	5.2810	-23.010
0.203	20.02	100.0474	5.2809	-23.018
0.212	20.02	100.0447	5.2807	-23.026
0.220	20.02	100.0417	5.2806	-23.036
0.228	20.02	100.0386	5.2804	-23.046
0.237	20.01	100.0352	5.2802	-23.058
0.245	20.01	100.0316	5.2800	-23.071
0.253	20.01	100.0277	5.2798	-23.087
0.262	20.01	100.0236	5.2796	-23.104
0.270	20.02	100.0192	5.2794	-23.121
0.278	20.02	100.0145	5.2791	-23.138
0.287	20.02	100.0095	5.2789	-23.154
0.295	20.02	100.0043	5.2786	-23.172
0.303	20.03	99.9987	5.2783	-23.189
0.312	20.03	99.9929	5.2780	-23.207
0.320	20.03	99.9869	5.2777	-23.225
0.328	20.04	99.9806	5.2773	-23.244
0.337	20.05	99.9741	5.2770	-23.262
0.345	20.05	99.9675	5.2766	-23.279
0.353	20.06	99.9607	5.2763	-23.296
0.362	20.07	99.9537	5.2759	-23.314
0.370	20.08	99.9466	5.2755	-23.334
0.378	20.08	99.9394	5.2751	-23.354
0.387	20.09	99.9321	5.2748	-23.375
0.395	20.10	99.9246	5.2744	-23.395
0.403	20.11	99.9171	5.2740	-23.415
0.412	20.13	99.9096	5.2736	-23.436
0.420	20.14	99.9020	5.2732	-23.458
0.428	20.15	99.8944	5.2728	-23.481
0.437	20.16	99.8867	5.2724	-23.505
0.445	20.18	99.8790	5.2720	-23.529
0.453	20.19	99.8713	5.2716	-23.554
0.462	20.21	99.8636	5.2711	-23.579
0.470	20.23	99.8559	5.2707	-23.604
0.478	20.24	99.8482	5.2703	-23.629
0.487	20.26	99.8404	5.2699	-23.656
0.495	20.28	99.8327	5.2695	-23.682
0.503	20.30	99.8249	5.2691	-23.708
0.512	20.32	99.8172	5.2687	-23.735
0.520	20.34	99.8095	5.2683	-23.763
0.528	20.36	99.8018	5.2679	-23.790
0.537	20.39	99.7941	5.2675	-23.819
0.545	20.41	99.7864	5.2671	-23.847
0.553	20.43	99.7788	5.2667	-23.875
0.562	20.46	99.7712	5.2663	-23.904
0.570	20.48	99.7636	5.2659	-23.933
0.578	20.51	99.7561	5.2655	-23.964
0.587	20.54	99.7487	5.2651	-23.994
0.595	20.56	99.7413	5.2647	-24.025
0.603	20.59	99.7339	5.2643	-24.055
0.612	20.62	99.7267	5.2639	-24.085
0.620	20.65	99.7195	5.2635	-24.115
0.628	20.68	99.7124	5.2632	-24.149
0.637	20.72	99.7055	5.2628	-24.183
0.645	20.75	99.6986	5.2624	-24.217
0.653	20.78	99.6918	5.2621	-24.251
0.662	20.81	99.6851	5.2617	-24.286
0.670	20.85	99.6785	5.2614	-24.322
0.678	20.88	99.6720	5.2610	-24.357
0.687	20.92	99.6656	5.2607	-24.393
0.695	20.96	99.6594	5.2604	-24.430
0.703	21.00	99.6532	5.2600	-24.468
0.712	21.03	99.6472	5.2597	-24.506
0.720	21.07	99.6414	5.2594	-24.544
0.728	21.11	99.6356	5.2591	-24.581
0.737	21.15	99.6301	5.2588	-24.619
0.745	21.20	99.6247	5.2585	-24.656
0.753	21.24	99.6194	5.2583	-24.694
0.762	21.28	99.6143	5.2580	-24.732
0.770	21.33	99.6093	5.2577	-24.771
0.778	21.37	99.6046	5.2575	-24.809
0.787	21.42	99.5999	5.2572	-24.846
0.795	21.46	99.5955	5.2570	-24.883
0.803	21.51	99.5911	5.2568	-24.920
0.812	21.56	99.5870	5.2565	-24.957
0.820	21.61	99.5829	5.2563	-24.993
0.828	21.65	99.5791	5.2561	-25.028
0.837	21.70	99.5753	5.2559	-25.064
0.845	21.75	99.5718	5.2557	-25.098
0.853	21.81	99.5683	5.2556	-25.132
0.862	21.86	99.5651	5.2554	-25.166
0.870	21.91	99.5619	5.2552	-25.200
0.878	21.97	99.5589	5.2551	-25.232
0.887	22.02	99.5560	5.2549	-25.265
0.895	22.08	99.5533	5.2548	-25.296
0.903	22.13	99.5507	5.2546	-25.326
0.912	22.19	99.5481	5.2545	-25.354
0.920	22.25	99.5457	5.2544	-25.382
0.928	22.31	99.5434	5.2542	-25.409
0.937	22.37	99.5411	5.2541	-25.435
0.945	22.43	99.5390	5.2540	-25.459
0.953	22.49	99.5369	5.2539	-25.483
0.962	22.55	99.5349	5.2538	-25.505
0.970	22.61	99.5329	5.2537	-25.526
0.978	22.67	99.5310	5.2536	-25.546
0.987	22.74	99.5292	5.2535	-25.566
0.995	22.80	99.5274	5.2534	-25.585
1.003	22.86	99.5256	5.2533	-25.603
1.012	22.93	99.5239	5.2532	-25.621
1.020	23.00	99.5222	5.2531	-25.636
1.028	23.06	99.5205	5.2530	-25.650
1.037	23.13	99.5189	5.2530	-25.664
1.045	23.20	99.5172	5.2529	-25.676
1.053	23.27	99.5156	5.2528	-25.688
1.062	23.34	99.5139	5.2527	-25.697
1.070	23.41	99.5122	5.2526	-25.706
1.078	23.48	99.5106	5.2525	-25.715
1.087	23.55	99.5089	5.2524	-25.721
1.095	23.63	99.5072	5.2523	-25.727
1.103	23.70	99.5055	5.2522	-25.733
1.112	23.77	99.5038	5.2522	-25.738
1.120	23.85	99.5020	5.2521	-25.742
1.128	23.92	99.5003	5.2520	-25.746
1.137	24.00	99.4985	5.2519	-25.748
1.145	24.08	99.4967	5.2518	-25.751
1.153	24.15	99.4949	5.2517	-25.753
1.162	24.23	99.4930	5.2516	-25.754
1.170	24.31	99.4912	5.2515	-25.754
1.178	24.39	99.4893	5.2514	-25.754
1.187	24.47	99.4874	5.2513	-25.752
1.195	24.55	99.4854	5.2512	-25.750
1.203	24.63	99.4834	5.2511	-25.747
1.212	24.71	99.4814	5.2510	-25.743
1.220	24.79	99.4794	5.2509	-25.738
1.228	24.87	99.4773	5.2508	-25.731
1.237	24.95	99.4752	5.2506	-25.724
1.245	25.03	99.4730	5.2505	-25.714
1.253	25.12	99.4709	5.2504	-25.701
1.262	25.20	99.4687	5.2503	-25.687
1.270	25.28	99.4664	5.2502	-25.673
1.278	25.37	99.4641	5.2501	-25.656
1.287	25.45	99.4618	5.2499	-25.639
1.295	25.54	99.4594	5.2498	-25.621
1.303	25.62	99.4570	5.2497	-25.601
1.312	25.71	99.4545	5.2496	-25.581
1.320	25.80	99.4521	5.2494	-25.560
1.328	25.88	99.4495	5.2493	-25.539
1.337	25.97	99.4470	5.2492	-25.519
1.345	26.06	99.4444	5.2490	-25.499
1.353	26.15	99.4418	5.2489	-25.478
1.362	26.23	99.4391	5.2487	-25.457
1.370	26.32	99.4365	5.2486	-25.435
1.378	26.41	99.4337	5.2485	-25.414
1.387	26.50	99.4310	5.2483	-25.392
1.395	26.59	99.4282	5.2482	-25.369
1.403	26.68	99.4254	5.2480	-25.345
1.412	26.77	99.4226	5.2479	-25.321
1.420	26.86	99.4197	5.2477	-25.295
1.428	26.96	99.4168	5.2476	-25.268
1.437	27.05	99.4138	5.2474	-25.242
1.445	27.14	99.4108	5.2473	-25.215
1.453	27.23	99.4078	5.2471	-25.187
1.462	27.32	99.4048	5.2469	-25.159
1.470	27.42	99.4017	5.2468	-25.129
1.478	27.51	99.3985	5.2466	-25.099
1.487	27.60	99.3954	5.2464	-25.070
1.495	27.70	99.3922	5.2463	-25.040
1.503	27.79	99.3890	5.2461	-25.008
1.512	27.89	99.3857	5.2459	-24.977
1.520	27.98	99.3824	5.2457	-24.946
1.528	28.07	99.3791	5.2456	-24.914
1.537	28.17	99.3757	5.2454	-24.881
1.545	28.27	99.3723	5.2452	-24.846
1.553	28.36	99.3689	5.2450	-24.813
1.562	28.46	99.3655	5.2449	-24.780
1.570	28.55	99.3620	5.2447	-24.744
1.578	28.65	99.3585	5.2445	-24.709
1.587	28.74	99.3550	5.2443	-24.674
1.595	28.84	99.3514	5.2441	-24.637
1.603	28.94	99.3478	5.2439	-24.600
1.612	29.03	99.3442	5.2437	-24.564
1.620	29.13	99.3405	5.2435	-24.528
1.628	29.23	99.3368	5.2433	-24.491
1.637	29.32	99.3331	5.2431	-24.452
1.645	29.42	99.3293	5.2429	-24.414
1.653	29.52	99.3255	5.2427	-24.376
1.662	29.62	99.3217	5.2425	-24.337
1.670	29.72	99.3178	5.2423	-24.298
1.678	29.82	99.3139	5.2421	-24.259
1.687	29.91	99.3100	5.2419	-24.217
1.695	30.01	99.3060	5.2417	-24.175
1.703	30.11	99.3021	5.2415	-24.134
1.712	30.21	99.2980	5.2413	-24.092
1.720	30.31	99.2940	5.2411	-24.051
1.728	30.41	99.2899	5.2409	-24.009
1.737	30.51	99.2858	5.2407	-23.967
1.745	30.61	99.2817	5.2404	-23.924
1.753	30.70	99.2776	5.2402	-23.881
1.762	30.80	99.2734	5.2400	-23.837
1.770	30.90	99.2692	5.2398	-23.796
1.778	31.00	99.2649	5.2395	-23.754
1.787	31.10	99.2606	5.2393	-23.709
1.795	31.20	99.2563	5.2391	-23.665
1.803	31.30	99.2519	5.2389	-23.621
1.812	31.40	99.2475	5.2386	-23.576
1.820	31.50	99.2431	5.2384	-23.532
1.828	31.60	99.2387	5.2382	-23.487
1.837	31.70	99.2342	5.2379	-23.441
1.845	31.80	99.2297	5.2377	-23.395
1.853	31.90	99.2251	5.2374	-23.348
1.862	32.00	99.2205	5.2372	-23.301
1.870	32.10	99.2159	5.2370	-23.256
1.878	32.20	99.2113	5.2367	-23.208
1.887	32.30	99.2066	5.2365	-23.160
1.895	32.40	99.2019	5.2362	-23.112
1.903	32.50	99.1972	5.2360	-23.064
1.912	32.60	99.1924	5.2357	-23.016
1.920	32.70	99.1876	5.2355	-22.968
1.928	32.80	99.1827	5.2352	-22.919
1.937	32.90	99.1779	5.2350	-22.870
1.945	33.00	99.1730	5.2347	-22.820
1.953	33.10	99.1680	5.2344	-22.770
1.962	33.20	99.1631	5.2342	-22.721
1.970	33.30	99.1581	5.2339	-22.672
1.978	33.40	99.1531	5.2336	-22.622
1.987	33.50	99.1480	5.2334	-22.571
1.995	33.60	99.1429	5.2331	-22.520
2.003	33.70	99.1378	5.2328	-22.469
2.012	33.80	99.1326	5.2326	-22.416
2.020	33.90	99.1275	5.2323	-22.364
2.028	34.00	99.1222	5.2320	-22.313
2.037	34.10	99.1170	5.2317	-22.260
2.045	34.20	99.1117	5.2315	-22.205
2.053	34.30	99.1064	5.2312	-22.150
2.062	34.40	99.1010	5.2309	-22.097
2.070	34.50	99.0956	5.2306	-22.044
2.078	34.60	99.0902	5.2303	-21.990
2.087	34.70	99.0847	5.2300	-21.936
2.095	34.80	99.0792	5.2297	-21.884
2.103	34.90	99.0737	5.2295	-21.830
2.112	35.00	99.0681	5.2292	-21.776
2.120	35.10	99.0625	5.2289	-21.723
2.128	35.20	99.0568	5.2286	-21.671
2.137	35.30	99.0511	5.2283	-21.618
2.145	35.40	99.0454	5.2280	-21.564
2.153	35.50	99.0396	5.2277	-21.511
2.162	35.60	99.0338	5.2273	-21.458
2.170	35.70	99.0280	5.2270	-21.405
2.178	35.80	99.0221	5.2267	-21.351
2.187	35.90	99.0163	5.2264	-21.297
2.195	36.00	99.0103	5.2261	-21.244
2.203	36.10	99.0044	5.2258	-21.189
2.212	36.20	98.9984	5.2255	-21.135
2.220	36.29	98.9924	5.2252	-21.080
2.228	36.39	98.9863	5.2248	-21.025
2.237	36.49	98.9802	5.2245	-20.970
2.245	36.59	98.9741	5.2242	-20.914
2.253	36.69	98.9680	5.2239	-20.859
2.262	36.79	98.9618	5.2235	-20.804
2.270	36.89	98.9556	5.2232	-20.750
2.278	36.98	98.9493	5.2229	-20.694
2.287	37.08	98.9430	5.2226	-20.638
2.295	37.18	98.9367	5.2222	-20.584
2.303	37.28	98.9303	5.2219	-20.529
2.312	37.38	98.9239	5.2215	-20.474
2.320	37.47	98.9174	5.2212	-20.418
2.328	37.57	98.9109	5.2209	-20.363
2.337	37.67	98.9044	5.2205	-20.307
2.345	37.77	98.8978	5.2202	-20.252
2.353	37.86	98.8912	5.2198	-20.194
2.362	37.96	98.8845	5.2195	-20.137
2.370	38.06	98.8778	5.2191	-20.082
2.378	38.15	98.8711	5.2188	-20.025
2.387	38.25	98.8643	5.2184	-19.969
2.395	38.35	98.8575	5.2180	-19.914
2.403	38.44	98.8507	5.2177	-19.858
2.412	38.54	98.8438	5.2173	-19.803
2.420	38.64	98.8369	5.2170	-19.748
2.428	38.73	98.8299	5.2166	-19.693
2.437	38.83	98.8229	5.2162	-19.638
2.445	38.93	98.8159	5.2158	-19.584
2.453	39.02	98.8089	5.2155	-19.529
2.462	39.12	98.8018	5.2151	-19.474
2.470	39.21	98.7947	5.2147	-19.419
2.478	39.31	98.7875	5.2143	-19.363
2.487	39.41	98.7803	5.2140	-19.307
2.495	39.50	98.7731	5.2136	-19.251
2.503	39.60	98.7659	5.2132	-19.196
2.512	39.69	98.7586	5.2128	-19.140
2.520	39.79	98.7512	5.2124	-19.084
2.528	39.88	98.7439	5.2120	-19.028
2.537	39.98	98.7365	5.2117	-18.972
2.545	40.07	98.7291	5.2113	-18.916
2.553	40.17	98.7216	5.2109	-18.860
2.562	40.26	98.7141	5.2105	-18.805
2.570	40.35	98.7066	5.2101	-18.748
2.578	40.45	98.6990	5.2097	-18.692
2.587	40.54	98.6914	5.2093	-18.637
2.595	40.64	98.6838	5.2089	-18.581
2.603	40.73	98.6761	5.2085	-18.525
2.612	40.82	98.6685	5.2081	-18.468
2.620	40.92	98.6608	5.2077	-18.413
2.628	41.01	98.6530	5.2072	-18.358
2.637	41.11	98.6453	5.2068	-18.303
2.645	41.20	98.6375	5.2064	-18.247
2.653	41.29	98.6297	5.2060	-18.191
2.662	41.38	98.6219	5.2056	-18.136
2.670	41.48	98.6140	5.2052	-18.081
2.678	41.57	98.6062	5.2048	-18.026
2.687	41.66	98.5983	5.2044	-17.972
2.695	41.76	98.5903	5.2039	-17.917
2.703	41.85	98.5823	5.2035	-17.861
2.712	41.94	98.5743	5.2031	-17.807
2.720	42.03	98.5662	5.2027	-17.752
2.728	42.12	98.5581	5.2022	-17.697
2.737	42.22	98.5500	5.2018	-17.643
2.745	42.31	98.5419	5.2014	-17.588
2.753	42.40	98.5337	5.2010	-17.532
2.762	42.49	98.5255	5.2005	-17.476
2.770	42.58	98.5173	5.2001	-17.420
2.778	42.67	98.5090	5.1996	-17.365
2.787	42.77	98.5007	5.1992	-17.309
2.795	42.86	98.4924	5.1988	-17.254
2.803	42.95	98.4841	5.1983	-17.199
2.812	43.04	98.4757	5.1979	-17.144
2.820	43.13	98.4674	5.1975	-17.090
2.828	43.22	98.4590	5.1970	-17.036
2.837	43.31	98.4506	5.1966	-16.982
2.845	43.40	98.4422	5.1961	-16.930
2.853	43.49	98.4337	5.1957	-16.878
2.862	43.58	98.4252	5.1952	-16.825
2.870	43.67	98.4167	5.1948	-16.772
2.878	43.76	98.4082	5.1943	-16.718
2.887	43.85	98.3996	5.1939	-16.666
2.895	43.94	98.3910	5.1934	-16.613
2.903	44.03	98.3824	5.1930	-16.559
2.912	44.12	98.3737	5.1925	-16.506
2.920	44.21	98.3650	5.1920	-16.452
2.928	44.30	98.3563	5.1916	-16.397
2.937	44.39	98.3476	5.1911	-16.343
2.945	44.48	98.3388	5.1907	-16.290
2.953	44.57	98.3300	5.1902	-16.237
2.962	44.66	98.3212	5.1897	-16.183
2.970	44.75	98.3124	5.1893	-16.129
2.978	44.83	98.3035	5.1888	-16.077
2.987	44.92	98.2947	5.1883	-16.025
2.995	45.01	98.2858	5.1879	-15.974
3.003	45.10	98.2769	5.1874	-15.922
3.012	45.19	98.2680	5.1869	-15.871
3.020	45.28	98.2590	5.1865	-15.820
3.028	45.36	98.2501	5.1860	-15.768
3.037	45.45	98.2411	5.1855	-15.715
3.045	45.54	98.2321	5.1850	-15.664
3.053	45.63	98.2231	5.1846	-15.614
3.062	45.72	98.2141	5.1841	-15.563
3.070	45.80	98.2050	5.1836	-15.511
3.078	45.89	98.1959	5.1831	-15.459
3.087	45.98	98.1868	5.1826	-15.408
3.095	46.06	98.1776	5.1822	-15.356
3.103	46.15	98.1685	5.1817	-15.304
3.112	46.24	98.1593	5.1812	-15.253
3.120	46.33	98.1501	5.1807	-15.203
3.128	46.41	98.1409	5.1802	-15.151
3.137	46.50	98.1316	5.1797	-15.098
3.145	46.59	98.1224	5.1792	-15.048
3.153	46.67	98.1131	5.1788	-14.997
3.162	46.76	98.1038	5.1783	-14.946
3.170	46.85	98.0945	5.1778	-14.895
3.178	46.94	98.0852	5.1773	-14.844
3.187	47.02	98.0759	5.1768	-14.794
3.195	47.11	98.0666	5.1763	-14.743
3.203	47.20	98.0573	5.1758	-14.693
3.212	47.28	98.0479	5.1753	-14.644
3.220	47.37	98.0385	5.1748	-14.593
3.228	47.46	98.0291	5.1743	-14.543
3.237	47.54	98.0198	5.1738	-14.492
3.245	47.63	98.0104	5.1733	-14.442
3.253	47.71	98.0010	5.1728	-14.392
3.262	47.80	97.9915	5.1723	-14.342
3.270	47.89	97.9821	5.1718	-14.292
3.278	47.97	97.9726	5.1713	-14.243
3.287	48.06	97.9631	5.1708	-14.195
3.295	48.14	97.9536	5.1703	-14.146
3.303	48.23	97.9441	5.1698	-14.097
3.312	48.31	97.9346	5.1693	-14.048
3.320	48.40	97.9251	5.1688	-13.999
3.328	48.48	97.9155	5.1683	-13.951
3.337	48.57	97.9059	5.1678	-13.902
3.345	48.65	97.8964	5.1673	-13.853
3.353	48.74	97.8868	5.1668	-13.805
3.362	48.83	97.8771	5.1663	-13.757
3.370	48.91	97.8675	5.1658	-13.707
3.378	49.00	97.8579	5.1653	-13.660
3.387	49.08	97.8483	5.1648	-13.612
3.395	49.17	97.8387	5.1643	-13.563
3.403	49.25	97.8290	5.1638	-13.516
3.412	49.34	97.8194	5.1632	-13.468
3.420	49.42	97.8098	5.1627	-13.420
3.428	49.51	97.8001	5.1622	-13.374
3.437	49.59	97.7905	5.1617	-13.326
3.445	49.67	97.7808	5.1612	-13.278
3.453	49.76	97.7712	5.1607	-13.230
3.462	49.84	97.7615	5.1602	-13.183
3.470	49.93	97.7518	5.1597	-13.135
3.478	50.01	97.7421	5.1592	-13.089
3.487	50.10	97.7324	5.1587	-13.041
3.495	50.18	97.7227	5.1581	-12.994
3.503	50.27	97.7130	5.1576	-12.947
3.512	50.35	97.7032	5.1571	-12.900
3.520	50.44	97.6935	5.1566	-12.855
3.528	50.52	97.6837	5.1561	-12.808
3.537	50.60	97.6740	5.1556	-12.762
3.545	50.69	97.6642	5.1551	-12.716
3.553	50.77	97.6544	5.1545	-12.669
3.562	50.86	97.6446	5.1540	-12.623
3.570	50.94	97.6349	5.1535	-12.577
3.578	51.03	97.6251	5.1530	-12.530
3.587	51.11	97.6153	5.1525	-12.484
3.595	51.19	97.6055	5.1520	-12.437
3.603	51.28	97.5957	5.1514	-12.391
3.612	51.36	97.5859	5.1509	-12.346
3.620	51.45	97.5761	5.1504	-12.301
3.628	51.53	97.5663	5.1499	-12.256
3.637	51.61	97.5565	5.1494	-12.210
3.645	51.70	97.5466	5.1489	-12.166
3.653	51.78	97.5368	5.1483	-12.122
3.662	51.86	97.5270	5.1478	-12.078
3.670	51.95	97.5171	5.1473	-12.032
3.678	52.03	97.5073	5.1468	-11.987
3.687	52.11	97.4974	5.1463	-11.943
3.695	52.20	97.4875	5.1457	-11.897
3.703	52.28	97.4777	5.1452	-11.853
3.712	52.37	97.4678	5.1447	-11.809
3.720	52.45	97.4580	5.1442	-11.765
3.728	52.53	97.4481	5.1436	-11.720
3.737	52.62	97.4382	5.1431	-11.676
3.745	52.70	97.4284	5.1426	-11.632
3.753	52.78	97.4185	5.1421	-11.588
3.762	52.87	97.4086	5.1416	-11.544
3.770	52.95	97.3988	5.1410	-11.500
3.778	53.03	97.3889	5.1405	-11.455
3.787	53.12	97.3791	5.1400	-11.410
3.795	53.20	97.3692	5.1395	-11.366
3.803	53.29	97.3593	5.1390	-11.321
3.812	53.37	97.3495	5.1384	-11.277
3.820	53.45	97.3396	5.1379	-11.233
3.828	53.54	97.3298	5.1374	-11.191
3.837	53.62	97.3199	5.1369	-11.149
3.845	53.70	97.3100	5.1364	-11.107
3.853	53.78	97.3002	5.1358	-11.063
3.862	53.87	97.2904	5.1353	-11.020
3.870	53.95	97.2806	5.1348	-10.977
3.878	54.04	97.2708	5.1343	-10.934
3.887	54.12	97.2612	5.1338	-10.892
3.895	54.20	97.2515	5.1333	-10.849
3.903	54.29	97.2419	5.1328	-10.806
3.912	54.37	97.2323	5.1323	-10.762
3.920	54.45	97.2228	5.1318	-10.718
3.928	54.54	97.2133	5.1313	-10.675
3.937	54.62	97.2038	5.1308	-10.634
3.945	54.71	97.1944	5.1303	-10.592
3.953	54.79	97.1849	5.1298	-10.550
3.962	54.87	97.1755	5.1293	-10.507
3.970	54.96	97.1660	5.1288	-10.466
3.978	55.04	97.1566	5.1283	-10.424
3.987	55.12	97.1472	5.1278	-10.382
3.995	55.21	97.1377	5.1273	-10.340
4.003	55.29	97.1283	5.1268	-10.297
4.012	55.37	97.1189	5.1263	-10.255
4.020	55.46	97.1095	5.1258	-10.213
4.028	55.54	97.1000	5.1253	-10.172
4.037	55.62	97.0906	5.1248	-10.130
4.045	55.71	97.0812	5.1243	-10.089
4.053	55.79	97.0718	5.1238	-10.047
4.062	55.87	97.0624	5.1233	-10.005
4.070	55.96	97.0529	5.1228	-9.963
4.078	56.04	97.0435	5.1223	-9.922
4.087	56.12	97.0341	5.1218	-9.880
4.095	56.21	97.0247	5.1213	-9.839
4.103	56.29	97.0153	5.1208	-9.798
4.112	56.37	97.0058	5.1203	-9.756
4.120	56.46	96.9964	5.1198	-9.715
4.128	56.54	96.9869	5.1193	-9.673
4.137	56.62	96.9775	5.1188	-9.632
4.145	56.71	96.9681	5.1183	-9.591
4.153	56.79	96.9587	5.1178	-9.551
4.162	56.88	96.9493	5.1173	-9.511
4.170	56.96	96.9400	5.1168	-9.470
4.178	57.04	96.9307	5.1163	-9.430
4.187	57.13	96.9214	5.1158	-9.388
4.195	57.21	96.9121	5.1154	-9.348
4.203	57.29	96.9028	5.1149	-9.308
4.212	57.38	96.8935	5.1144	-9.268
4.220	57.46	96.8843	5.1139	-9.227
4.228	57.55	96.8750	5.1134	-9.185
4.237	57.63	96.8658	5.1129	-9.145
4.245	57.71	96.8565	5.1124	-9.105
4.253	57.80	96.8473	5.1119	-9.065
4.262	57.88	96.8381	5.1115	-9.025
4.270	57.97	96.8289	5.1110	-8.986
4.278	58.05	96.8197	5.1105	-8.946
4.287	58.13	96.8105	5.1100	-8.907
4.295	58.22	96.8013	5.1095	-8.867
4.303	58.30	96.7922	5.1090	-8.828
4.312	58.39	96.7830	5.1085	-8.789
4.320	58.47	96.7739	5.1081	-8.750
4.328	58.55	96.7648	5.1076	-8.710
4.337	58.64	96.7557	5.1071	-8.672
4.345	58.72	96.7466	5.1066	-8.633
4.353	58.81	96.7375	5.1061	-8.594
4.362	58.89	96.7283	5.1057	-8.555
4.370	58.97	96.7192	5.1052	-8.515
4.378	59.06	96.7102	5.1047	-8.477
4.387	59.14	96.7011	5.1042	-8.438
4.395	59.22	96.6920	5.1037	-8.399
4.403	59.31	96.6830	5.1033	-8.359
4.412	59.39	96.6739	5.1028	-8.320
4.420	59.48	96.6649	5.1023	-8.280
4.428	59.56	96.6559	5.1018	-8.241
4.437	59.64	96.6470	5.1014	-8.202
4.445	59.73	96.6380	5.1009	-8.163
4.453	59.81	96.6291	5.1004	-8.124
4.462	59.90	96.6201	5.0999	-8.084
4.470	59.98	96.6112	5.0995	-8.046
4.478	60.06	96.6023	5.0990	-8.007
4.487	60.15	96.5934	5.0985	-7.969
4.495	60.23	96.5846	5.0981	-7.931
4.503	60.32	96.5757	5.0976	-7.893
4.512	60.40	96.5669	5.0971	-7.854
4.520	60.49	96.5581	5.0967	-7.815
4.528	60.57	96.5492	5.0962	-7.777
4.537	60.66	96.5404	5.0957	-7.739
4.545	60.74	96.5317	5.0953	-7.701
4.553	60.82	96.5229	5.0948	-7.661
4.562	60.91	96.5143	5.0944	-7.623
4.570	60.99	96.5056	5.0939	-7.585
4.578	61.08	96.4970	5.0934	-7.546
4.587	61.16	96.4884	5.0930	-7.507
4.595	61.25	96.4799	5.0925	-7.469
4.603	61.33	96.4713	5.0921	-7.431
4.612	61.42	96.4628	5.0916	-7.393
4.620	61.50	96.4543	5.0912	-7.355
4.628	61.58	96.4459	5.0907	-7.318
4.637	61.67	96.4375	5.0903	-7.282
4.645	61.75	96.4291	5.0899	-7.244
4.653	61.84	96.4207	5.0894	-7.206
4.662	61.92	96.4123	5.0890	-7.169
4.670	62.01	96.4039	5.0885	-7.132
4.678	62.09	96.3955	5.0881	-7.095
4.687	62.18	96.3871	5.0876	-7.057
4.695	62.26	96.3788	5.0872	-7.019
4.703	62.35	96.3704	5.0868	-6.980
4.712	62.43	96.3621	5.0863	-6.941
4.720	62.52	96.3538	5.0859	-6.902
4.728	62.60	96.3454	5.0854	-6.864
4.737	62.69	96.3371	5.0850	-6.827
4.745	62.77	96.3288	5.0846	-6.789
4.753	62.86	96.3205	5.0841	-6.751
4.762	62.94	96.3122	5.0837	-6.714
4.770	63.03	96.3040	5.0833	-6.677
4.778	63.11	96.2957	5.0828	-6.640
4.787	63.19	96.2875	5.0824	-6.604
4.795	63.28	96.2793	5.0820	-6.568
4.803	63.36	96.2711	5.0815	-6.533
4.812	63.45	96.2629	5.0811	-6.496
4.820	63.54	96.2548	5.0807	-6.459
4.828	63.62	96.2467	5.0802	-6.423
4.837	63.71	96.2386	5.0798	-6.387
4.845	63.79	96.2306	5.0794	-6.350
4.853	63.88	96.2225	5.0790	-6.313
4.862	63.96	96.2145	5.0785	-6.276
4.870	64.05	96.2065	5.0781	-6.240
4.878	64.13	96.1985	5.0777	-6.203
4.887	64.22	96.1905	5.0773	-6.165
4.895	64.30	96.1826	5.0769	-6.128
4.903	64.39	96.1747	5.0764	-6.091
4.912	64.47	96.1668	5.0760	-6.055
4.920	64.56	96.1589	5.0756	-6.018
4.928	64.64	96.1511	5.0752	-5.982
4.937	64.73	96.1432	5.0748	-5.946
4.945	64.82	96.1354	5.0744	-5.908
4.953	64.90	96.1276	5.0740	-5.871
4.962	64.99	96.1199	5.0735	-5.834
4.970	65.07	96.1121	5.0731	-5.799
4.978	65.16	96.1044	5.0727	-5.763
4.987	65.24	96.0966	5.0723	-5.726
4.995	65.33	96.0889	5.0719	-5.690
5.003	65.41	96.0812	5.0715	-5.653
5.012	65.50	96.0736	5.0711	-5.617
5.020	65.58	96.0659	5.0707	-5.581
5.028	65.67	96.0583	5.0703	-5.546
5.037	65.75	96.0506	5.0699	-5.510
5.045	65.84	96.0430	5.0695	-5.474
5.053	65.92	96.0355	5.0691	-5.438
5.062	66.01	96.0279	5.0687	-5.403
5.070	66.09	96.0204	5.0683	-5.368
5.078	66.18	96.0128	5.0679	-5.334
5.087	66.27	96.0053	5.0675	-5.300
5.095	66.35	95.9979	5.0671	-5.265
5.103	66.44	95.9904	5.0667	-5.229
5.112	66.52	95.9830	5.0663	-5.194
5.120	66.61	95.9756	5.0659	-5.158
5.128	66.70	95.9682	5.0655	-5.124
5.137	66.78	95.9609	5.0651	-5.089
5.145	66.87	95.9536	5.0648	-5.054
5.153	66.95	95.9462	5.0644	-5.018
5.162	67.04	95.9389	5.0640	-4.983
5.170	67.12	95.9316	5.0636	-4.947
5.178	67.21	95.9244	5.0632	-4.912
5.187	67.30	95.9172	5.0628	-4.877
5.195	67.38	95.9099	5.0625	-4.843
5.203	67.47	95.9027	5.0621	-4.808
5.212	67.55	95.8956	5.0617	-4.772
5.220	67.64	95.8884	5.0613	-4.736
5.228	67.72	95.8813	5.0609	-4.701
5.237	67.81	95.8742	5.0606	-4.666
5.245	67.90	95.8672	5.0602	-4.632
5.253	67.98	95.8601	5.0598	-4.597
5.262	68.07	95.8531	5.0595	-4.562
5.270	68.15	95.8462	5.0591	-4.528
5.278	68.24	95.8392	5.0587	-4.493
5.287	68.32	95.8323	5.0584	-4.460
5.295	68.41	95.8253	5.0580	-4.427
5.303	68.50	95.8184	5.0576	-4.394
5.312	68.58	95.8116	5.0573	-4.359
5.320	68.67	95.8047	5.0569	-4.324
5.328	68.76	95.7978	5.0565	-4.289
5.337	68.84	95.7910	5.0562	-4.255
5.345	68.93	95.7842	5.0558	-4.220
5.353	69.01	95.7775	5.0555	-4.186
5.362	69.10	95.7707	5.0551	-4.153
5.370	69.19	95.7640	5.0548	-4.118
5.378	69.27	95.7573	5.0544	-4.084
5.387	69.36	95.7506	5.0541	-4.051
5.395	69.44	95.7440	5.0537	-4.017
5.403	69.53	95.7374	5.0534	-3.985
5.412	69.62	95.7308	5.0530	-3.952
5.420	69.70	95.7242	5.0527	-3.919
5.428	69.79	95.7177	5.0523	-3.887
5.437	69.87	95.7111	5.0520	-3.854
5.445	69.96	95.7046	5.0516	-3.821
5.453	70.05	95.6982	5.0513	-3.788
5.462	70.13	95.6917	5.0509	-3.755
5.470	70.22	95.6853	5.0506	-3.722
5.478	70.30	95.6789	5.0503	-3.688
5.487	70.39	95.6725	5.0499	-3.654
5.495	70.48	95.6661	5.0496	-3.621
5.503	70.56	95.6598	5.0493	-3.588
5.512	70.65	95.6535	5.0489	-3.553
5.520	70.74	95.6471	5.0486	-3.519
5.528	70.82	95.6408	5.0483	-3.486
5.537	70.91	95.6346	5.0479	-3.452
5.545	70.99	95.6283	5.0476	-3.419
5.553	71.08	95.6220	5.0473	-3.386
5.562	71.17	95.6158	5.0469	-3.352
5.570	71.25	95.6096	5.0466	-3.319
5.578	71.34	95.6034	5.0463	-3.285
5.587	71.43	95.5972	5.0460	-3.252
5.595	71.51	95.5911	5.0456	-3.219
5.603	71.60	95.5850	5.0453	-3.186
5.612	71.68	95.5790	5.0450	-3.153
5.620	71.77	95.5729	5.0447	-3.121
5.628	71.86	95.5670	5.0444	-3.088
5.637	71.94	95.5610	5.0440	-3.055
5.645	72.03	95.5551	5.0437	-3.024
5.653	72.11	95.5492	5.0434	-2.992
5.662	72.20	95.5433	5.0431	-2.960
5.670	72.29	95.5374	5.0428	-2.929
5.678	72.37	95.5316	5.0425	-2.898
5.687	72.46	95.5258	5.0422	-2.866
5.695	72.55	95.5200	5.0419	-2.834
5.703	72.63	95.5142	5.0416	-2.802
5.712	72.72	95.5085	5.0413	-2.771
5.720	72.80	95.5027	5.0410	-2.739
5.728	72.89	95.4970	5.0407	-2.706
5.737	72.98	95.4913	5.0404	-2.673
5.745	73.06	95.4857	5.0401	-2.641
5.753	73.15	95.4801	5.0398	-2.607
5.762	73.24	95.4744	5.0395	-2.575
5.770	73.32	95.4688	5.0392	-2.543
5.778	73.41	95.4633	5.0389	-2.512
5.787	73.50	95.4577	5.0386	-2.480
5.795	73.58	95.4522	5.0383	-2.448
5.803	73.67	95.4467	5.0380	-2.416
5.812	73.75	95.4412	5.0377	-2.385
5.820	73.84	95.4357	5.0374	-2.353
5.828	73.93	95.4303	5.0371	-2.322
5.837	74.01	95.4249	5.0369	-2.291
5.845	74.10	95.4195	5.0366	-2.258
5.853	74.19	95.4141	5.0363	-2.226
5.862	74.27	95.4088	5.0360	-2.194
5.870	74.36	95.4035	5.0357	-2.162
5.878	74.45	95.3982	5.0354	-2.130
5.887	74.53	95.3929	5.0352	-2.099
5.895	74.62	95.3877	5.0349	-2.068
5.903	74.70	95.3825	5.0346	-2.038
5.912	74.79	95.3773	5.0343	-2.007
5.920	74.88	95.3721	5.0341	-1.977
5.928	74.96	95.3670	5.0338	-1.947
5.937	75.05	95.3619	5.0335	-1.915
5.945	75.14	95.3568	5.0333	-1.884
5.953	75.22	95.3518	5.0330	-1.854
5.962	75.31	95.3467	5.0327	-1.823
5.970	75.39	95.3417	5.0325	-1.791
5.978	75.48	95.3368	5.0322	-1.761
5.987	75.57	95.3318	5.0319	-1.730
5.995	75.65	95.3269	5.0317	-1.700
6.003	75.74	95.3220	5.0314	-1.669
6.012	75.83	95.3171	5.0312	-1.639
6.020	75.91	95.3122	5.0309	-1.612
6.028	76.00	95.3073	5.0307	-1.583
6.037	76.09	95.3025	5.0304	-1.554
6.045	76.17	95.2977	5.0301	-1.526
6.053	76.26	95.2929	5.0299	-1.498
6.062	76.35	95.2882	5.0296	-1.468
6.070	76.43	95.2834	5.0294	-1.438
6.078	76.52	95.2787	5.0291	-1.409
6.087	76.61	95.2740	5.0289	-1.380
6.095	76.69	95.2694	5.0286	-1.349
6.103	76.78	95.2648	5.0284	-1.318
6.112	76.86	95.2602	5.0282	-1.287
6.120	76.95	95.2556	5.0279	-1.257
6.128	77.04	95.2510	5.0277	-1.228
6.137	77.12	95.2465	5.0274	-1.197
6.145	77.21	95.2419	5.0272	-1.167
6.153	77.30	95.2375	5.0270	-1.138
6.162	77.38	95.2330	5.0267	-1.109
6.170	77.47	95.2286	5.0265	-1.080
6.178	77.56	95.2241	5.0263	-1.051
6.187	77.64	95.2197	5.0260	-1.021
6.195	77.73	95.2154	5.0258	-0.993
6.203	77.82	95.2110	5.0256	-0.964
6.212	77.90	95.2067	5.0253	-0.935
6.220	77.99	95.2024	5.0251	-0.907
6.228	78.07	95.1981	5.0249	-0.879
6.237	78.16	95.1938	5.0247	-0.851
6.245	78.25	95.1895	5.0244	-0.823
6.253	78.33	95.1853	5.0242	-0.796
6.262	78.42	95.1811	5.0240	-0.768
6.270	78.51	95.1769	5.0238	-0.741
6.278	78.59	95.1727	5.0235	-0.713
6.287	78.68	95.1686	5.0233	-0.685
6.295	78.77	95.1644	5.0231	-0.658
6.303	78.85	95.1603	5.0229	-0.631
6.312	78.94	95.1562	5.0227	-0.603
6.320	79.02	95.1522	5.0225	-0.575
6.328	79.11	95.1482	5.0223	-0.547
6.337	79.20	95.1441	5.0220	-0.520
6.345	79.28	95.1401	5.0218	-0.494
6.353	79.37	95.1361	5.0216	-0.467
6.362	79.46	95.1322	5.0214	-0.440
6.370	79.54	95.1283	5.0212	-0.413
6.378	79.63	95.1243	5.0210	-0.385
6.387	79.72	95.1205	5.0208	-0.358
6.395	79.80	95.1166	5.0206	-0.331
6.403	79.89	95.1127	5.0204	-0.304
6.412	79.98	95.1089	5.0202	-0.277
6.420	80.06	95.1051	5.0200	-0.249
6.428	80.15	95.1013	5.0198	-0.221
6.437	80.23	95.0976	5.0196	-0.193
6.445	80.32	95.0938	5.0194	-0.165
6.453	80.41	95.0901	5.0192	-0.139
6.462	80.49	95.0864	5.0190	-0.112
6.470	80.58	95.0827	5.0188	-0.083
6.478	80.67	95.0790	5.0186	-0.056
6.487	80.75	95.0753	5.0184	-0.029
6.495	80.84	95.0717	5.0182	-0.003
6.503	80.93	95.0681	5.0180	0.022
6.512	81.01	95.0645	5.0178	0.049
6.520	81.10	95.0609	5.0176	0.074
6.528	81.19	95.0573	5.0175	0.099
6.537	81.27	95.0538	5.0173	0.124
6.545	81.36	95.0503	5.0171	0.150
6.553	81.44	95.0468	5.0169	0.174
6.562	81.53	95.0433	5.0167	0.198
6.570	81.62	95.0399	5.0165	0.224
6.578	81.70	95.0364	5.0164	0.251
6.587	81.79	95.0330	5.0162	0.278
6.595	81.88	95.0295	5.0160	0.304
6.603	81.96	95.0261	5.0158	0.330
6.612	82.05	95.0227	5.0156	0.357
6.620	82.13	95.0194	5.0155	0.384
6.628	82.22	95.0160	5.0153	0.409
6.637	82.31	95.0127	5.0151	0.434
6.645	82.39	95.0094	5.0149	0.460
6.653	82.48	95.0061	5.0148	0.485
6.662	82.57	95.0029	5.0146	0.509
6.670	82.65	94.9996	5.0144	0.533
6.678	82.74	94.9964	5.0142	0.558
6.687	82.83	94.9932	5.0141	0.582
6.695	82.91	94.9900	5.0139	0.605
6.703	83.00	94.9869	5.0137	0.630
6.712	83.08	94.9837	5.0136	0.656
6.720	83.17	94.9806	5.0134	0.682
6.728	83.26	94.9776	5.0132	0.706
6.737	83.34	94.9745	5.0131	0.731
6.745	83.43	94.9714	5.0129	0.755
6.753	83.52	94.9684	5.0128	0.780
6.762	83.60	94.9653	5.0126	0.804
6.770	83.69	94.9623	5.0124	0.828
6.778	83.77	94.9593	5.0123	0.853
6.787	83.86	94.9564	5.0121	0.875
6.795	83.95	94.9534	5.0120	0.897
6.803	84.03	94.9504	5.0118	0.919
6.812	84.12	94.9475	5.0117	0.941
6.820	84.21	94.9446	5.0115	0.964
6.828	84.29	94.9417	5.0114	0.987
6.837	84.38	94.9389	5.0112	1.010
6.845	84.47	94.9361	5.0111	1.034
6.853	84.55	94.9333	5.0109	1.057
6.862	84.64	94.9305	5.0108	1.081
6.870	84.72	94.9277	5.0106	1.105
6.878	84.81	94.9250	5.0105	1.129
6.887	84.90	94.9223	5.0103	1.153
6.895	84.98	94.9195	5.0102	1.177
6.903	85.07	94.9168	5.0100	1.201
6.912	85.16	94.9142	5.0099	1.224
6.920	85.24	94.9115	5.0098	1.246
6.928	85.33	94.9089	5.0096	1.268
6.937	85.41	94.9063	5.0095	1.290
6.945	85.50	94.9036	5.0093	1.312
6.953	85.59	94.9010	5.0092	1.333
6.962	85.67	94.8984	5.0091	1.355
6.970	85.76	94.8958	5.0089	1.376
6.978	85.84	94.8933	5.0088	1.397
6.987	85.93	94.8907	5.0087	1.418
6.995	86.02	94.8882	5.0085	1.439
7.003	86.10	94.8857	5.0084	1.460
7.012	86.19	94.8832	5.0083	1.481
7.020	86.27	94.8807	5.0081	1.502
7.028	86.36	94.8782	5.0080	1.524
7.037	86.45	94.8757	5.0079	1.546
7.045	86.53	94.8733	5.0077	1.567
7.053	86.62	94.8709	5.0076	1.588
7.062	86.71	94.8685	5.0075	1.610
7.070	86.79	94.8661	5.0074	1.630
7.078	86.88	94.8638	5.0072	1.651
7.087	86.96	94.8614	5.0071	1.672
7.095	87.05	94.8591	5.0070	1.693
7.103	87.14	94.8568	5.0069	1.714
7.112	87.22	94.8545	5.0068	1.735
7.120	87.31	94.8523	5.0066	1.755
7.128	87.40	94.8500	5.0065	1.775
7.137	87.48	94.8478	5.0064	1.795
7.145	87.57	94.8455	5.0063	1.816
7.153	87.65	94.8433	5.0062	1.838
7.162	87.74	94.8411	5.0060	1.861
7.170	87.83	94.8390	5.0059	1.882
7.178	87.91	94.8368	5.0058	1.903
7.187	88.00	94.8347	5.0057	1.924
7.195	88.08	94.8325	5.0056	1.945
7.203	88.17	94.8304	5.0055	1.966
7.212	88.26	94.8283	5.0054	1.986
7.220	88.34	94.8262	5.0053	2.006
7.228	88.43	94.8241	5.0051	2.026
7.237	88.52	94.8221	5.0050	2.046
7.245	88.60	94.8200	5.0049	2.065
7.253	88.69	94.8180	5.0048	2.084
7.262	88.77	94.8159	5.0047	2.104
7.270	88.86	94.8139	5.0046	2.124
7.278	88.95	94.8119	5.0045	2.142
7.287	89.03	94.8099	5.0044	2.161
7.295	89.12	94.8080	5.0043	2.181
7.303	89.20	94.8060	5.0042	2.200
7.312	89.29	94.8041	5.0041	2.218
7.320	89.38	94.8022	5.0040	2.237
7.328	89.46	94.8003	5.0039	2.255
7.337	89.55	94.7984	5.0038	2.273
7.345	89.63	94.7966	5.0037	2.290
7.353	89.72	94.7947	5.0036	2.307
7.362	89.81	94.7929	5.0035	2.325
7.370	89.89	94.7910	5.0034	2.342
7.378	89.98	94.7892	5.0033	2.360
7.387	90.07	94.7874	5.0032	2.377
7.395	90.15	94.7856	5.0031	2.394
7.403	90.24	94.7837	5.0030	2.411
7.412	90.32	94.7820	5.0029	2.428
7.420	90.41	94.7802	5.0028	2.447
7.428	90.49	94.7784	5.0027	2.464
7.437	90.58	94.7767	5.0026	2.482
7.445	90.67	94.7750	5.0026	2.499
7.453	90.75	94.7732	5.0025	2.517
7.462	90.84	94.7715	5.0024	2.534
7.470	90.92	94.7698	5.0023	2.550
7.478	91.01	94.7682	5.0022	2.567
7.487	91.10	94.7665	5.0021	2.584
7.495	91.18	94.7648	5.0020	2.600
7.503	91.27	94.7632	5.0019	2.615
7.512	91.35	94.7616	5.0018	2.631
7.520	91.44	94.7600	5.0018	2.648
7.528	91.53	94.7584	5.0017	2.664
7.537	91.61	94.7568	5.0016	2.681
7.545	91.70	94.7553	5.0015	2.698
7.553	91.78	94.7537	5.0014	2.715
7.562	91.87	94.7522	5.0014	2.731
7.570	91.96	94.7507	5.0013	2.747
7.578	92.04	94.7492	5.0012	2.764
7.587	92.13	94.7477	5.0011	2.781
7.595	92.21	94.7462	5.0010	2.797
7.603	92.30	94.7447	5.0010	2.812
7.612	92.38	94.7433	5.0009	2.826
7.620	92.47	94.7418	5.0008	2.841
7.628	92.56	94.7404	5.0007	2.856
7.637	92.64	94.7390	5.0007	2.872
7.645	92.73	94.7375	5.0006	2.887
7.653	92.81	94.7361	5.0005	2.902
7.662	92.90	94.7347	5.0004	2.916
7.670	92.99	94.7333	5.0004	2.931
7.678	93.07	94.7319	5.0003	2.946
7.687	93.16	94.7306	5.0002	2.961
7.695	93.24	94.7292	5.0001	2.975
7.703	93.33	94.7278	5.0001	2.991
7.712	93.41	94.7264	5.0000	3.005
7.720	93.50	94.7251	4.9999	3.020
7.728	93.59	94.7237	4.9998	3.036
7.737	93.67	94.7223	4.9998	3.051
7.745	93.76	94.7210	4.9997	3.066
7.753	93.85	94.7196	4.9996	3.081
7.762	93.93	94.7183	4.9996	3.095
7.770	94.02	94.7170	4.9995	3.110
7.778	94.10	94.7157	4.9994	3.127
7.787	94.19	94.7144	4.9994	3.143
7.795	94.28	94.7131	4.9993	3.158
7.803	94.36	94.7119	4.9992	3.172
7.812	94.45	94.7106	4.9992	3.186
7.820	94.53	94.7093	4.9991	3.200
7.828	94.62	94.7081	4.9990	3.214
7.837	94.71	94.7069	4.9990	3.229
7.845	94.79	94.7057	4.9989	3.243
7.853	94.88	94.7044	4.9988	3.256
7.862	94.96	94.7032	4.9988	3.269
7.870	95.05	94.7021	4.9987	3.281
7.878	95.13	94.7009	4.9986	3.294
7.887	95.22	94.6998	4.9986	3.306
7.895	95.31	94.6986	4.9985	3.318
7.903	95.39	94.6975	4.9985	3.331
7.912	95.48	94.6964	4.9984	3.344
7.920	95.56	94.6953	4.9983	3.357
7.928	95.65	94.6943	4.9983	3.370
7.937	95.73	94.6932	4.9982	3.384
7.945	95.82	94.6921	4.9982	3.397
7.953	95.91	94.6911	4.9981	3.410
7.962	95.99	94.6900	4.9981	3.424
7.970	96.08	94.6889	4.9980	3.437
7.978	96.16	94.6879	4.9980	3.451
7.987	96.25	94.6868	4.9979	3.464
7.995	96.34	94.6858	4.9978	3.477
8.003	96.42	94.6848	4.9978	3.490
8.012	96.51	94.6838	4.9977	3.502
8.020	96.59	94.6828	4.9977	3.513
8.028	96.68	94.6819	4.9976	3.525
8.037	96.77	94.6809	4.9976	3.536
8.045	96.85	94.6800	4.9975	3.548
8.053	96.94	94.6790	4.9975	3.560
8.062	97.02	94.6781	4.9974	3.572
8.070	97.11	94.6772	4.9974	3.582
8.078	97.19	94.6763	4.9973	3.593
8.087	97.28	94.6754	4.9973	3.604
8.095	97.36	94.6744	4.9972	3.615
8.103	97.45	94.6735	4.9972	3.625
8.112	97.54	94.6726	4.9971	3.636
8.120	97.62	94.6717	4.9971	3.646
8.128	97.71	94.6707	4.9971	3.656
8.137	97.79	94.6698	4.9970	3.666
8.145	97.88	94.6689	4.9970	3.676
8.153	97.97	94.6680	4.9969	3.687
8.162	98.05	94.6671	4.9969	3.697
8.170	98.14	94.6662	4.9968	3.708
8.178	98.22	94.6654	4.9968	3.720
8.187	98.31	94.6645	4.9967	3.731
8.195	98.40	94.6636	4.9967	3.743
8.203	98.48	94.6628	4.9966	3.753
8.212	98.57	94.6619	4.9966	3.764
8.220	98.65	94.6611	4.9965	3.775
8.228	98.74	94.6602	4.9965	3.786
8.237	98.82	94.6594	4.9965	3.796
8.245	98.91	94.6586	4.9964	3.806
8.253	99.00	94.6578	4.9964	3.816
8.262	99.08	94.6570	4.9963	3.826
8.270	99.17	94.6562	4.9963	3.835
8.278	99.25	94.6554	4.9962	3.845
8.287	99.34	94.6546	4.9962	3.856
8.295	99.42	94.6538	4.9962	3.866
8.303	99.51	94.6530	4.9961	3.877
8.312	99.60	94.6522	4.9961	3.887
8.320	99.68	94.6514	4.9960	3.897
8.328	99.77	94.6507	4.9960	3.907
8.337	99.85	94.6499	4.9959	3.917
8.345	99.94	94.6491	4.9959	3.927
8.353	100.02	94.6483	4.9959	3.936
8.362	100.11	94.6475	4.9958	3.945
8.370	100.20	94.6468	4.9958	3.953
8.378	100.28	94.6460	4.9957	3.961
8.387	100.37	94.6453	4.9957	3.969
8.395	100.45	94.6446	4.9957	3.977
8.403	100.54	94.6438	4.9956	3.985
8.412	100.62	94.6431	4.9956	3.993
8.420	100.71	94.6424	4.9956	4.002
8.428	100.80	94.6417	4.9955	4.011
8.437	100.88	94.6410	4.9955	4.019
8.445	100.97	94.6403	4.9954	4.028
8.453	101.05	94.6396	4.9954	4.036
8.462	101.14	94.6390	4.9954	4.045
8.470	101.22	94.6383	4.9953	4.054
8.478	101.31	94.6376	4.9953	4.062
8.487	101.40	94.6370	4.9953	4.070
8.495	101.48	94.6363	4.9952	4.078
8.503	101.57	94.6357	4.9952	4.085
8.512	101.65	94.6351	4.9952	4.092
8.520	101.74	94.6344	4.9951	4.100
8.528	101.83	94.6338	4.9951	4.108
8.537	101.91	94.6332	4.9951	4.115
8.545	102.00	94.6326	4.9950	4.122
8.553	102.08	94.6319	4.9950	4.129
8.562	102.17	94.6313	4.9950	4.135
8.570	102.25	94.6307	4.9949	4.141
8.578	102.34	94.6301	4.9949	4.147
8.587	102.43	94.6295	4.9949	4.154
8.595	102.51	94.6289	4.9948	4.160
8.603	102.60	94.6283	4.9948	4.166
8.612	102.68	94.6278	4.9948	4.172
8.620	102.77	94.6272	4.9948	4.178
8.628	102.86	94.6266	4.9947	4.184
8.637	102.94	94.6260	4.9947	4.190
8.645	103.03	94.6254	4.9947	4.197
8.653	103.11	94.6248	4.9946	4.204
8.662	103.20	94.6242	4.9946	4.211
8.670	103.28	94.6237	4.9946	4.218
8.678	103.37	94.6231	4.9945	4.225
8.687	103.45	94.6225	4.9945	4.231
8.695	103.54	94.6219	4.9945	4.236
8.703	103.63	94.6214	4.9944	4.243
8.712	103.71	94.6208	4.9944	4.249
8.720	103.80	94.6202	4.9944	4.256
8.728	103.88	94.6197	4.9944	4.261
8.737	103.97	94.6191	4.9943	4.267
8.745	104.05	94.6185	4.9943	4.272
8.753	104.14	94.6180	4.9943	4.277
8.762	104.23	94.6174	4.9942	4.281
8.770	104.31	94.6168	4.9942	4.286
8.778	104.40	94.6163	4.9942	4.291
8.787	104.48	94.6157	4.9941	4.294
8.795	104.57	94.6152	4.9941	4.298
8.803	104.65	94.6146	4.9941	4.302
8.812	104.74	94.6141	4.9941	4.306
8.820	104.83	94.6136	4.9940	4.310
8.828	104.91	94.6131	4.9940	4.315
8.837	105.00	94.6126	4.9940	4.319
8.845	105.08	94.6121	4.9940	4.324
8.853	105.17	94.6116	4.9939	4.328
8.862	105.25	94.6111	4.9939	4.333
8.870	105.34	94.6106	4.9939	4.338
8.878	105.43	94.6102	4.9939	4.343
8.887	105.51	94.6097	4.9938	4.348
8.895	105.60	94.6092	4.9938	4.354
8.903	105.68	94.6087	4.9938	4.359
8.912	105.77	94.6082	4.9937	4.365
8.920	105.85	94.6077	4.9937	4.370

[step]
Isothermal 30.0 min
Time	Temperature	Weight	Weight	Heat Flow
min	°C	%	mg	mW
8.928	105.94	94.6072	4.9937	4.375
8.953	106.20	94.6057	4.9936	4.390
8.978	106.45	94.6043	4.9935	4.404
9.003	106.71	94.6029	4.9935	4.416
9.028	106.97	94.6015	4.9934	4.432
9.053	107.22	94.6002	4.9933	4.453
9.078	107.47	94.5988	4.9933	4.479
9.103	107.72	94.5974	4.9932	4.511
9.128	107.97	94.5961	4.9931	4.545
9.153	108.21	94.5948	4.9930	4.586
9.178	108.45	94.5936	4.9930	4.635
9.203	108.68	94.5922	4.9929	4.695
9.228	108.91	94.5909	4.9928	4.757
9.253	109.14	94.5896	4.9928	4.825
9.278	109.36	94.5884	4.9927	4.897
9.303	109.58	94.5871	4.9926	4.977
9.328	109.79	94.5858	4.9926	5.063
9.353	110.00	94.5845	4.9925	5.156
9.378	110.20	94.5832	4.9924	5.254
9.403	110.39	94.5819	4.9924	5.359
9.428	110.58	94.5807	4.9923	5.467
9.453	110.76	94.5795	4.9922	5.583
9.478	110.93	94.5783	4.9922	5.705
9.503	111.10	94.5770	4.9921	5.835
9.528	111.26	94.5758	4.9920	5.970
9.553	111.42	94.5746	4.9920	6.106
9.578	111.57	94.5733	4.9919	6.246
9.603	111.71	94.5720	4.9918	6.387
9.628	111.85	94.5707	4.9918	6.534
9.653	111.98	94.5695	4.9917	6.688
9.678	112.11	94.5684	4.9917	6.845
9.703	112.23	94.5674	4.9916	7.006
9.728	112.34	94.5663	4.9915	7.170
9.753	112.44	94.5652	4.9915	7.339
9.778	112.54	94.5642	4.9914	7.512
9.803	112.62	94.5632	4.9914	7.688
9.828	112.71	94.5622	4.9913	7.868
9.853	112.78	94.5611	4.9913	8.047
9.878	112.85	94.5600	4.9912	8.230
9.903	112.91	94.5588	4.9911	8.414
9.928	112.97	94.5577	4.9911	8.597
9.953	113.02	94.5565	4.9910	8.777
9.978	113.06	94.5554	4.9910	8.956
10.003	113.10	94.5542	4.9909	9.136
10.028	113.14	94.5529	4.9908	9.317
10.053	113.17	94.5517	4.9908	9.496
10.078	113.19	94.5505	4.9907	9.674
10.103	113.21	94.5493	4.9906	9.848
10.128	113.23	94.5482	4.9906	10.021
10.153	113.24	94.5470	4.9905	10.192
10.178	113.24	94.5459	4.9905	10.360
10.203	113.24	94.5448	4.9904	10.523
10.228	113.24	94.5437	4.9903	10.683
10.253	113.23	94.5425	4.9903	10.838
10.278	113.23	94.5413	4.9902	10.989
10.303	113.21	94.5401	4.9902	11.133
10.328	113.20	94.5389	4.9901	11.271
10.353	113.19	94.5378	4.9900	11.404
10.378	113.17	94.5368	4.9900	11.534
10.403	113.15	94.5358	4.9899	11.658
10.428	113.13	94.5349	4.9899	11.775
10.453	113.11	94.5340	4.9898	11.886
10.478	113.09	94.5331	4.9898	11.995
10.503	113.06	94.5323	4.9897	12.100
10.528	113.04	94.5315	4.9897	12.201
10.553	113.01	94.5306	4.9897	12.297
10.578	112.98	94.5298	4.9896	12.386
10.603	112.95	94.5289	4.9896	12.471
10.628	112.93	94.5280	4.9895	12.552
10.653	112.90	94.5271	4.9895	12.632
10.678	112.87	94.5262	4.9894	12.709
10.703	112.84	94.5252	4.9894	12.785
10.728	112.81	94.5243	4.9893	12.854
10.753	112.78	94.5234	4.9893	12.916
10.778	112.74	94.5227	4.9892	12.978
10.803	112.71	94.5219	4.9892	13.032
10.828	112.69	94.5212	4.9892	13.091
10.853	112.65	94.5204	4.9891	13.144
10.878	112.62	94.5197	4.9891	13.196
10.903	112.59	94.5190	4.9890	13.243
[...]
95.337	949.78	-8.4140	-0.4441	101.612
95.345	949.78	-8.4141	-0.4441	101.621
95.353	949.78	-8.4142	-0.4441	101.630
95.362	949.78	-8.4143	-0.4441	101.639
95.370	949.78	-8.4144	-0.4441	101.647
95.378	949.78	-8.4145	-0.4441	101.655
95.387	949.78	-8.4146	-0.4442	101.663
95.395	949.78	-8.4147	-0.4442	101.670
95.403	949.78	-8.4148	-0.4442	101.678
95.412	949.78	-8.4149	-0.4442	101.685
95.420	949.78	-8.4150	-0.4442	101.692
95.428	949.78	-8.4150	-0.4442	101.699
95.437	949.78	-8.4151	-0.4442	101.706
95.445	949.78	-8.4152	-0.4442	101.712
95.453	949.78	-8.4153	-0.4442	101.719
95.462	949.78	-8.4154	-0.4442	101.727
95.470	949.79	-8.4155	-0.4442	101.734
95.478	949.79	-8.4156	-0.4442	101.741
95.487	949.79	-8.4157	-0.4442	101.748
95.495	949.79	-8.4158	-0.4442	101.755
95.503	949.79	-8.4159	-0.4442	101.761
95.512	949.79	-8.4160	-0.4442	101.768
95.520	949.79	-8.4161	-0.4442	101.777
95.528	949.79	-8.4162	-0.4442	101.787
95.537	949.79	-8.4163	-0.4442	101.796
95.545	949.79	-8.4164	-0.4442	101.804
95.553	949.79	-8.4165	-0.4443	101.813
95.562	949.79	-8.4166	-0.4443	101.821
95.570	949.79	-8.4167	-0.4443	101.830
95.578	949.79	-8.4168	-0.4443	101.839
95.587	949.79	-8.4169	-0.4443	101.848
95.595	949.79	-8.4170	-0.4443	101.857
95.603	949.79	-8.4171	-0.4443	101.863
95.612	949.79	-8.4172	-0.4443	101.868
95.620	949.79	-8.4173	-0.4443	101.874
95.628	949.79	-8.4174	-0.4443	101.880
95.637	949.79	-8.4175	-0.4443	101.885
95.645	949.79	-8.4176	-0.4443	101.891
95.653	949.79	-8.4177	-0.4443	101.897
95.662	949.79	-8.4178	-0.4443	101.903
95.670	949.80	-8.4178	-0.4443	101.909
95.678	949.80	-8.4179	-0.4443	101.916
95.687	949.80	-8.4180	-0.4443	101.923
95.695	949.80	-8.4181	-0.4443	101.930
95.703	949.80	-8.4182	-0.4443	101.938
95.712	949.80	-8.4182	-0.4443	101.944
95.720	949.80	-8.4183	-0.4443	101.951
95.728	949.80	-8.4183	-0.4443	101.958
95.737	949.80	-8.4184	-0.4444	101.964
95.745	949.80	-8.4184	-0.4444	101.970
95.753	949.80	-8.4184	-0.4444	101.975
95.762	949.80	-8.4185	-0.4444	101.980
95.770	949.80	-8.4185	-0.4444	101.985
95.778	949.80	-8.4186	-0.4444	101.989
95.787	949.80	-8.4187	-0.4444	101.994
95.795	949.80	-8.4188	-0.4444	101.998
95.803	949.80	-8.4188	-0.4444	102.002
95.812	949.80	-8.4190	-0.4444	102.006
95.820	949.80	-8.4191	-0.4444	102.010
95.828	949.80	-8.4192	-0.4444	102.014
95.837	949.80	-8.4193	-0.4444	102.019
95.845	949.80	-8.4194	-0.4444	102.023
95.853	949.80	-8.4195	-0.4444	102.029
95.862	949.80	-8.4195	-0.4444	102.034
95.870	949.81	-8.4196	-0.4444	102.040
95.878	949.81	-8.4197	-0.4444	102.046
95.887	949.81	-8.4198	-0.4444	102.052
95.895	949.81	-8.4199	-0.4444	102.058
95.903	949.81	-8.4199	-0.4444	102.064
95.912	949.81	-8.4200	-0.4444	102.070
95.920	949.81	-8.4201	-0.4444	102.075
95.928	949.81	-8.4201	-0.4444	102.080
95.937	949.81	-8.4202	-0.4444	102.084
95.945	949.81	-8.4203	-0.4445	102.089
95.953	949.81	-8.4204	-0.4445	102.094
95.962	949.81	-8.4204	-0.4445	102.098
95.970	949.81	-8.4205	-0.4445	102.103
95.978	949.81	-8.4206	-0.4445	102.108
95.987	949.81	-8.4207	-0.4445	102.113
95.995	949.81	-8.4208	-0.4445	102.118
96.003	949.81	-8.4209	-0.4445	102.123
96.012	949.81	-8.4210	-0.4445	102.129
96.020	949.81	-8.4211	-0.4445	102.135
96.028	949.81	-8.4212	-0.4445	102.141
96.037	949.81	-8.4213	-0.4445	102.146
96.045	949.81	-8.4214	-0.4445	102.152
96.053	949.81	-8.4215	-0.4445	102.158
96.062	949.81	-8.4216	-0.4445	102.163
96.070	949.81	-8.4217	-0.4445	102.169
96.078	949.81	-8.4218	-0.4445	102.174
96.087	949.82	-8.4219	-0.4445	102.180
96.095	949.82	-8.4220	-0.4445	102.185
96.103	949.82	-8.4220	-0.4445	102.191
96.112	949.82	-8.4221	-0.4445	102.195
96.120	949.82	-8.4222	-0.4446	102.200
96.128	949.82	-8.4223	-0.4446	102.205
96.137	949.82	-8.4224	-0.4446	102.210
96.145	949.82	-8.4225	-0.4446	102.216
96.153	949.82	-8.4226	-0.4446	102.221
96.162	949.82	-8.4227	-0.4446	102.226
96.170	949.82	-8.4228	-0.4446	102.231
96.178	949.82	-8.4229	-0.4446	102.236
96.187	949.82	-8.4230	-0.4446	102.241
96.195	949.82	-8.4231	-0.4446	102.246
96.203	949.82	-8.4232	-0.4446	102.251
96.212	949.82	-8.4233	-0.4446	102.255
96.220	949.82	-8.4234	-0.4446	102.260
96.228	949.82	-8.4235	-0.4446	102.264
96.237	949.82	-8.4236	-0.4446	102.269
96.245	949.82	-8.4237	-0.4446	102.274
96.253	949.82	-8.4237	-0.4446	102.279
96.262	949.82	-8.4238	-0.4446	102.284
96.270	949.82	-8.4239	-0.4446	102.289
96.278	949.82	-8.4240	-0.4447	102.294
96.287	949.82	-8.4241	-0.4447	102.299
96.295	949.82	-8.4243	-0.4447	102.305
96.303	949.82	-8.4244	-0.4447	102.310
96.312	949.82	-8.4245	-0.4447	102.315
96.320	949.82	-8.4246	-0.4447	102.320
96.328	949.82	-8.4247	-0.4447	102.325
96.337	949.82	-8.4248	-0.4447	102.330
96.345	949.82	-8.4249	-0.4447	102.335
96.353	949.82	-8.4250	-0.4447	102.340
96.362	949.82	-8.4251	-0.4447	102.345
96.370	949.82	-8.4252	-0.4447	102.350
96.378	949.83	-8.4253	-0.4447	102.354
96.387	949.83	-8.4254	-0.4447	102.358
96.395	949.83	-8.4255	-0.4447	102.363
96.403	949.83	-8.4256	-0.4447	102.367
96.412	949.83	-8.4257	-0.4447	102.370
96.420	949.83	-8.4257	-0.4447	102.374
96.428	949.83	-8.4258	-0.4447	102.377
96.437	949.83	-8.4259	-0.4447	102.381
96.445	949.83	-8.4260	-0.4448	102.386
96.453	949.83	-8.4261	-0.4448	102.391
96.462	949.83	-8.4262	-0.4448	102.395
96.470	949.83	-8.4262	-0.4448	102.400
96.478	949.83	-8.4263	-0.4448	102.405
96.487	949.83	-8.4263	-0.4448	102.410
96.495	949.83	-8.4264	-0.4448	102.416
96.503	949.83	-8.4265	-0.4448	102.422
96.512	949.83	-8.4266	-0.4448	102.428
96.520	949.83	-8.4266	-0.4448	102.433
96.528	949.83	-8.4267	-0.4448	102.438
96.537	949.83	-8.4268	-0.4448	102.442
96.545	949.83	-8.4268	-0.4448	102.447
96.553	949.83	-8.4269	-0.4448	102.451
96.562	949.83	-8.4270	-0.4448	102.455
96.570	949.83	-8.4271	-0.4448	102.459
96.578	949.83	-8.4272	-0.4448	102.463
96.587	949.83	-8.4272	-0.4448	102.466
96.595	949.83	-8.4273	-0.4448	102.470
96.603	949.83	-8.4274	-0.4448	102.473
96.612	949.83	-8.4274	-0.4448	102.476
96.620	949.83	-8.4275	-0.4448	102.479
96.628	949.83	-8.4276	-0.4448	102.482
96.637	949.83	-8.4277	-0.4448	102.487
96.645	949.83	-8.4278	-0.4448	102.491
96.653	949.83	-8.4279	-0.4449	102.495
96.662	949.83	-8.4279	-0.4449	102.500
96.670	949.83	-8.4280	-0.4449	102.504
96.678	949.83	-8.4281	-0.4449	102.507
96.687	949.83	-8.4282	-0.4449	102.512
96.695	949.83	-8.4283	-0.4449	102.517
96.703	949.83	-8.4283	-0.4449	102.523
96.712	949.83	-8.4284	-0.4449	102.528
96.720	949.84	-8.4285	-0.4449	102.533
96.728	949.84	-8.4285	-0.4449	102.538
96.737	949.84	-8.4286	-0.4449	102.543
96.745	949.84	-8.4287	-0.4449	102.549
96.753	949.84	-8.4287	-0.4449	102.554
96.762	949.84	-8.4288	-0.4449	102.560
96.770	949.84	-8.4289	-0.4449	102.565
96.778	949.84	-8.4289	-0.4449	102.570
96.787	949.84	-8.4290	-0.4449	102.574
96.795	949.84	-8.4291	-0.4449	102.578
96.803	949.84	-8.4291	-0.4449	102.582
96.812	949.84	-8.4292	-0.4449	102.586
96.820	949.84	-8.4292	-0.4449	102.590
96.828	949.84	-8.4293	-0.4449	102.594
96.837	949.84	-8.4293	-0.4449	102.597
96.845	949.84	-8.4294	-0.4449	102.600
96.853	949.84	-8.4294	-0.4449	102.603
96.862	949.84	-8.4295	-0.4449	102.605
96.870	949.84	-8.4296	-0.4449	102.607
96.878	949.84	-8.4296	-0.4449	102.610
96.887	949.84	-8.4297	-0.4449	102.612
96.895	949.84	-8.4297	-0.4450	102.614
96.903	949.84	-8.4298	-0.4450	102.616
96.912	949.84	-8.4299	-0.4450	102.618
96.920	949.84	-8.4299	-0.4450	102.620
96.928	949.84	-8.4300	-0.4450	102.622
96.937	949.84	-8.4301	-0.4450	102.624
96.945	949.84	-8.4301	-0.4450	102.627
96.953	949.84	-8.4302	-0.4450	102.629
96.962	949.84	-8.4303	-0.4450	102.632
96.970	949.84	-8.4303	-0.4450	102.635
96.978	949.84	-8.4304	-0.4450	102.637
96.987	949.84	-8.4305	-0.4450	102.640
96.995	949.84	-8.4306	-0.4450	102.642
97.003	949.84	-8.4306	-0.4450	102.645
97.012	949.84	-8.4307	-0.4450	102.648
97.020	949.84	-8.4308	-0.4450	102.651
97.028	949.84	-8.4309	-0.4450	102.654
97.037	949.84	-8.4309	-0.4450	102.656
97.045	949.84	-8.4310	-0.4450	102.659
97.053	949.84	-8.4311	-0.4450	102.661
97.062	949.84	-8.4311	-0.4450	102.665
97.070	949.84	-8.4312	-0.4450	102.668
97.078	949.85	-8.4312	-0.4450	102.671
97.087	949.85	-8.4313	-0.4450	102.675
97.095	949.85	-8.4314	-0.4450	102.678
97.103	949.85	-8.4315	-0.4450	102.681
97.112	949.85	-8.4316	-0.4450	102.685
97.120	949.85	-8.4316	-0.4451	102.688
97.128	949.85	-8.4317	-0.4451	102.692
97.137	949.85	-8.4318	-0.4451	102.695
97.145	949.85	-8.4318	-0.4451	102.698
97.153	949.85	-8.4319	-0.4451	102.700
97.162	949.85	-8.4319	-0.4451	102.703
97.170	949.85	-8.4320	-0.4451	102.706
97.178	949.85	-8.4321	-0.4451	102.709
97.187	949.85	-8.4322	-0.4451	102.711
97.195	949.85	-8.4322	-0.4451	102.714
97.203	949.85	-8.4323	-0.4451	102.716
97.212	949.85	-8.4324	-0.4451	102.719
97.220	949.85	-8.4325	-0.4451	102.721
97.228	949.85	-8.4326	-0.4451	102.724
97.237	949.85	-8.4327	-0.4451	102.727
97.245	949.85	-8.4328	-0.4451	102.729
97.253	949.85	-8.4329	-0.4451	102.732
97.262	949.85	-8.4330	-0.4451	102.734
97.270	949.85	-8.4331	-0.4451	102.737
97.278	949.85	-8.4331	-0.4451	102.739
97.287	949.85	-8.4332	-0.4451	102.742
97.295	949.85	-8.4333	-0.4451	102.745
97.303	949.85	-8.4333	-0.4451	102.748
97.312	949.85	-8.4334	-0.4451	102.751
97.320	949.85	-8.4334	-0.4451	102.754
97.328	949.85	-8.4335	-0.4451	102.758
97.337	949.85	-8.4336	-0.4452	102.761
97.345	949.85	-8.4336	-0.4452	102.764
97.353	949.85	-8.4337	-0.4452	102.767
97.362	949.85	-8.4337	-0.4452	102.770
97.370	949.85	-8.4338	-0.4452	102.773
97.378	949.85	-8.4339	-0.4452	102.776
97.387	949.85	-8.4339	-0.4452	102.779
97.395	949.85	-8.4340	-0.4452	102.781
97.403	949.85	-8.4341	-0.4452	102.784
97.412	949.85	-8.4342	-0.4452	102.787
97.420	949.85	-8.4342	-0.4452	102.789
97.428	949.85	-8.4343	-0.4452	102.792
97.437	949.85	-8.4343	-0.4452	102.794
97.445	949.85	-8.4344	-0.4452	102.796
97.453	949.85	-8.4345	-0.4452	102.799
97.462	949.85	-8.4345	-0.4452	102.801
97.470	949.85	-8.4346	-0.4452	102.804
97.478	949.85	-8.4347	-0.4452	102.807
97.487	949.85	-8.4347	-0.4452	102.809
97.495	949.85	-8.4348	-0.4452	102.812
97.503	949.85	-8.4349	-0.4452	102.815
97.512	949.86	-8.4350	-0.4452	102.818
97.520	949.86	-8.4350	-0.4452	102.821
97.528	949.86	-8.4351	-0.4452	102.824
97.537	949.86	-8.4352	-0.4452	102.826
97.545	949.86	-8.4352	-0.4452	102.829
97.553	949.86	-8.4353	-0.4452	102.831
97.562	949.86	-8.4354	-0.4452	102.833
97.570	949.86	-8.4354	-0.4453	102.835
97.578	949.86	-8.4355	-0.4453	102.837
97.587	949.86	-8.4356	-0.4453	102.839
97.595	949.86	-8.4357	-0.4453	102.842
97.603	949.86	-8.4357	-0.4453	102.844
97.612	949.86	-8.4358	-0.4453	102.846
97.620	949.86	-8.4359	-0.4453	102.849
97.628	949.86	-8.4360	-0.4453	102.851
97.637	949.86	-8.4361	-0.4453	102.854
97.645	949.86	-8.4362	-0.4453	102.857
97.653	949.86	-8.4362	-0.4453	102.860
97.662	949.86	-8.4363	-0.4453	102.863
97.670	949.86	-8.4364	-0.4453	102.865
97.678	949.86	-8.4365	-0.4453	102.868
97.687	949.86	-8.4366	-0.4453	102.870
97.695	949.86	-8.4367	-0.4453	102.873
97.703	949.86	-8.4367	-0.4453	102.875
97.712	949.86	-8.4368	-0.4453	102.877
97.720	949.86	-8.4369	-0.4453	102.879
97.728	949.86	-8.4369	-0.4453	102.881
97.737	949.86	-8.4370	-0.4453	102.883
97.745	949.86	-8.4371	-0.4453	102.884
97.753	949.86	-8.4371	-0.4453	102.886
97.762	949.86	-8.4372	-0.4453	102.888
97.770	949.86	-8.4372	-0.4453	102.890
97.778	949.86	-8.4373	-0.4453	102.893
97.787	949.86	-8.4373	-0.4454	102.895
97.795	949.86	-8.4374	-0.4454	102.897
97.803	949.86	-8.4375	-0.4454	102.900
97.812	949.86	-8.4376	-0.4454	102.902
97.820	949.86	-8.4377	-0.4454	102.905
97.828	949.86	-8.4378	-0.4454	102.908
97.837	949.86	-8.4379	-0.4454	102.911
97.845	949.86	-8.4380	-0.4454	102.914
97.853	949.86	-8.4381	-0.4454	102.917
97.862	949.86	-8.4382	-0.4454	102.919
97.870	949.86	-8.4383	-0.4454	102.921
97.878	949.86	-8.4384	-0.4454	102.923
97.887	949.86	-8.4385	-0.4454	102.925
97.895	949.86	-8.4386	-0.4454	102.928
97.903	949.86	-8.4387	-0.4454	102.930
97.912	949.86	-8.4388	-0.4454	102.932
97.920	949.86	-8.4389	-0.4454	102.934
97.928	949.86	-8.4390	-0.4454	102.936
97.937	949.86	-8.4391	-0.4454	102.938
97.945	949.86	-8.4392	-0.4455	102.940
97.953	949.86	-8.4393	-0.4455	102.942
97.962	949.86	-8.4394	-0.4455	102.944
97.970	949.86	-8.4394	-0.4455	102.946
97.978	949.86	-8.4395	-0.4455	102.949
97.987	949.86	-8.4396	-0.4455	102.951
97.995	949.86	-8.4396	-0.4455	102.953
98.003	949.87	-8.4397	-0.4455	102.955
98.012	949.86	-8.4398	-0.4455	102.957
98.020	949.87	-8.4399	-0.4455	102.960
98.028	949.87	-8.4399	-0.4455	102.962
98.037	949.87	-8.4400	-0.4455	102.964
98.045	949.87	-8.4401	-0.4455	102.966
98.053	949.87	-8.4402	-0.4455	102.967
98.062	949.87	-8.4402	-0.4455	102.969
98.070	949.87	-8.4403	-0.4455	102.971
98.078	949.87	-8.4404	-0.4455	102.973
98.087	949.87	-8.4404	-0.4455	102.975
98.095	949.87	-8.4405	-0.4455	102.977
98.103	949.87	-8.4405	-0.4455	102.979
98.112	949.87	-8.4406	-0.4455	102.981
98.120	949.87	-8.4406	-0.4455	102.984
98.128	949.87	-8.4406	-0.4455	102.986
98.137	949.87	-8.4407	-0.4455	102.989
98.145	949.87	-8.4408	-0.4455	102.991
98.153	949.87	-8.4408	-0.4455	102.993
98.162	949.87	-8.4409	-0.4455	102.995
98.170	949.87	-8.4410	-0.4455	102.997
98.178	949.87	-8.4410	-0.4455	102.999
98.187	949.87	-8.4411	-0.4456	103.000
98.195	949.87	-8.4412	-0.4456	103.002
98.203	949.87	-8.4413	-0.4456	103.004
98.212	949.87	-8.4413	-0.4456	103.006
98.220	949.87	-8.4414	-0.4456	103.007
98.228	949.87	-8.4415	-0.4456	103.009
98.237	949.87	-8.4415	-0.4456	103.011
98.245	949.87	-8.4416	-0.4456	103.013
98.253	949.87	-8.4417	-0.4456	103.014
98.262	949.87	-8.4418	-0.4456	103.016
98.270	949.87	-8.4418	-0.4456	103.019
98.278	949.87	-8.4419	-0.4456	103.021
98.287	949.87	-8.4420	-0.4456	103.022
98.295	949.87	-8.4421	-0.4456	103.024
98.303	949.87	-8.4422	-0.4456	103.026
98.312	949.87	-8.4423	-0.4456	103.028
98.320	949.87	-8.4424	-0.4456	103.031
98.328	949.87	-8.4425	-0.4456	103.034
98.337	949.87	-8.4426	-0.4456	103.037
98.345	949.87	-8.4427	-0.4456	103.041
98.353	949.87	-8.4427	-0.4456	103.044
98.362	949.87	-8.4428	-0.4456	103.048
98.370	949.87	-8.4429	-0.4456	103.051
98.378	949.87	-8.4429	-0.4456	103.054
98.387	949.87	-8.4430	-0.4457	103.058
98.395	949.87	-8.4431	-0.4457	103.062
98.403	949.87	-8.4431	-0.4457	103.065
98.412	949.87	-8.4432	-0.4457	103.067
98.420	949.87	-8.4433	-0.4457	103.070
98.428	949.87	-8.4434	-0.4457	103.072
98.437	949.87	-8.4434	-0.4457	103.074
98.445	949.87	-8.4435	-0.4457	103.076
98.453	949.87	-8.4436	-0.4457	103.078
98.462	949.87	-8.4437	-0.4457	103.080
98.470	949.87	-8.4438	-0.4457	103.081
98.478	949.87	-8.4439	-0.4457	103.083
98.487	949.87	-8.4440	-0.4457	103.085
98.495	949.87	-8.4441	-0.4457	103.087
98.503	949.87	-8.4442	-0.4457	103.089
98.512	949.87	-8.4443	-0.4457	103.091
98.520	949.87	-8.4444	-0.4457	103.092
98.528	949.87	-8.4445	-0.4457	103.094
98.537	949.87	-8.4445	-0.4457	103.096
98.545	949.87	-8.4446	-0.4457	103.098
98.553	949.87	-8.4447	-0.4457	103.099
98.562	949.87	-8.4448	-0.4457	103.101
98.570	949.87	-8.4449	-0.4458	103.102
98.578	949.87	-8.4450	-0.4458	103.103
98.587	949.87	-8.4451	-0.4458	103.104
98.595	949.87	-8.4451	-0.4458	103.106
98.603	949.87	-8.4452	-0.4458	103.107
98.612	949.87	-8.4453	-0.4458	103.108
98.620	949.87	-8.4454	-0.4458	103.109
98.628	949.87	-8.4455	-0.4458	103.111
98.637	949.87	-8.4455	-0.4458	103.112
98.645	949.87	-8.4456	-0.4458	103.113
98.653	949.87	-8.4457	-0.4458	103.115
98.662	949.87	-8.4458	-0.4458	103.116
98.670	949.87	-8.4459	-0.4458	103.118
98.678	949.87	-8.4460	-0.4458	103.120
98.687	949.87	-8.4461	-0.4458	103.121
98.695	949.87	-8.4462	-0.4458	103.123
98.703	949.87	-8.4463	-0.4458	103.125
98.712	949.87	-8.4464	-0.4458	103.127
98.720	949.87	-8.4465	-0.4458	103.130
98.728	949.87	-8.4466	-0.4458	103.132
98.737	949.87	-8.4467	-0.4458	103.135
98.745	949.87	-8.4468	-0.4459	103.137
98.753	949.87	-8.4469	-0.4459	103.140
98.762	949.87	-8.4470	-0.4459	103.143
98.770	949.87	-8.4470	-0.4459	103.146
98.778	949.87	-8.4471	-0.4459	103.150
98.787	949.87	-8.4472	-0.4459	103.153
98.795	949.87	-8.4473	-0.4459	103.156
98.803	949.87	-8.4473	-0.4459	103.159
98.812	949.87	-8.4474	-0.4459	103.162
98.820	949.87	-8.4475	-0.4459	103.165
98.828	949.87	-8.4475	-0.4459	103.168
98.837	949.87	-8.4476	-0.4459	103.170
98.845	949.87	-8.4477	-0.4459	103.173
98.853	949.87	-8.4477	-0.4459	103.174
98.862	949.87	-8.4478	-0.4459	103.176
98.870	949.87	-8.4479	-0.4459	103.178
98.878	949.87	-8.4479	-0.4459	103.179
98.887	949.87	-8.4480	-0.4459	103.181
98.895	949.87	-8.4481	-0.4459	103.182
98.903	949.87	-8.4482	-0.4459	103.183
98.912	949.87	-8.4483	-0.4459	103.184
98.920	949.88	-8.4484	-0.4459	103.185
98.928	949.88	-8.4485	-0.4459	103.186
98.937	949.88	-8.4486	-0.4459	103.187
98.945	949.88	-8.4487	-0.4459	103.189
98.953	949.88	-8.4488	-0.4460	103.190
98.962	949.88	-8.4488	-0.4460	103.191
98.970	949.88	-8.4489	-0.4460	103.192
98.978	949.88	-8.4490	-0.4460	103.194
98.987	949.88	-8.4491	-0.4460	103.195
98.995	949.88	-8.4492	-0.4460	103.197
99.003	949.88	-8.4492	-0.4460	103.198
99.012	949.88	-8.4493	-0.4460	103.200
99.020	949.88	-8.4494	-0.4460	103.201
99.028	949.88	-8.4495	-0.4460	103.203
99.037	949.88	-8.4496	-0.4460	103.204
99.045	949.88	-8.4496	-0.4460	103.205
99.053	949.88	-8.4497	-0.4460	103.207
99.062	949.88	-8.4498	-0.4460	103.208
99.070	949.88	-8.4499	-0.4460	103.209
99.078	949.88	-8.4499	-0.4460	103.211
99.087	949.88	-8.4500	-0.4460	103.212
99.095	949.88	-8.4501	-0.4460	103.213
99.103	949.88	-8.4502	-0.4460	103.215
99.112	949.88	-8.4502	-0.4460	103.216
99.120	949.88	-8.4503	-0.4460	103.218
99.128	949.88	-8.4504	-0.4460	103.220
99.137	949.88	-8.4504	-0.4460	103.221
99.145	949.88	-8.4505	-0.4460	103.223
99.153	949.88	-8.4506	-0.4460	103.225
99.162	949.88	-8.4506	-0.4461	103.226
99.170	949.88	-8.4507	-0.4461	103.228
99.178	949.88	-8.4507	-0.4461	103.230
99.187	949.88	-8.4508	-0.4461	103.232
99.195	949.88	-8.4509	-0.4461	103.234
99.203	949.88	-8.4509	-0.4461	103.236
99.212	949.88	-8.4510	-0.4461	103.238
99.220	949.88	-8.4510	-0.4461	103.240
99.228	949.88	-8.4511	-0.4461	103.242
99.237	949.88	-8.4511	-0.4461	103.244
99.245	949.88	-8.4512	-0.4461	103.246
99.253	949.88	-8.4512	-0.4461	103.247
99.262	949.88	-8.4513	-0.4461	103.249
99.270	949.88	-8.4513	-0.4461	103.250
99.278	949.88	-8.4514	-0.4461	103.251
99.287	949.88	-8.4515	-0.4461	103.253
99.295	949.88	-8.4515	-0.4461	103.254
99.303	949.88	-8.4516	-0.4461	103.255
99.312	949.88	-8.4517	-0.4461	103.256
99.320	949.88	-8.4518	-0.4461	103.257
99.328	949.88	-8.4518	-0.4461	103.257
99.337	949.88	-8.4519	-0.4461	103.257
99.345	949.88	-8.4519	-0.4461	103.258
99.353	949.88	-8.4520	-0.4461	103.258
99.362	949.88	-8.4521	-0.4461	103.259
99.370	949.88	-8.4521	-0.4461	103.259
99.378	949.88	-8.4522	-0.4461	103.260
99.387	949.88	-8.4522	-0.4461	103.261
99.395	949.88	-8.4523	-0.4461	103.262
99.403	949.88	-8.4524	-0.4461	103.263
99.412	949.88	-8.4524	-0.4461	103.264
99.420	949.88	-8.4525	-0.4462	103.265
99.428	949.88	-8.4525	-0.4462	103.266
99.437	949.88	-8.4526	-0.4462	103.267
99.445	949.88	-8.4527	-0.4462	103.268
99.453	949.88	-8.4527	-0.4462	103.269
99.462	949.88	-8.4528	-0.4462	103.271
99.470	949.88	-8.4528	-0.4462	103.272
99.478	949.88	-8.4529	-0.4462	103.273
99.487	949.88	-8.4529	-0.4462	103.274
99.495	949.88	-8.4530	-0.4462	103.275
99.503	949.88	-8.4531	-0.4462	103.277
99.512	949.88	-8.4531	-0.4462	103.278
99.520	949.88	-8.4532	-0.4462	103.279
99.528	949.88	-8.4533	-0.4462	103.280
99.537	949.88	-8.4534	-0.4462	103.282
99.545	949.88	-8.4535	-0.4462	103.283
99.553	949.88	-8.4536	-0.4462	103.285
99.562	949.88	-8.4537	-0.4462	103.287
99.570	949.88	-8.4538	-0.4462	103.289
99.578	949.88	-8.4539	-0.4462	103.290
99.587	949.88	-8.4540	-0.4462	103.292
99.595	949.88	-8.4541	-0.4462	103.294
99.603	949.88	-8.4541	-0.4462	103.296
99.612	949.88	-8.4542	-0.4462	103.297
99.620	949.88	-8.4542	-0.4462	103.299
99.628	949.88	-8.4543	-0.4462	103.301
99.637	949.88	-8.4543	-0.4462	103.303
99.645	949.88	-8.4544	-0.4463	103.304
99.653	949.88	-8.4544	-0.4463	103.305
99.662	949.88	-8.4544	-0.4463	103.306
99.670	949.88	-8.4545	-0.4463	103.307
99.678	949.88	-8.4546	-0.4463	103.309
99.687	949.88	-8.4546	-0.4463	103.310
99.695		-8.4547	-0.4463
99.703		-8.4547	-0.4463
99.712		-8.4548	-0.4463
99.720		-8.4549	-0.4463
99.728		-8.4550	-0.4463