File: PSO Kinetics/data/softwood-50Kmin_2.txt
Filename	softwood-50Kmin_2
Instrument name	0650-0369 (192.168.1.2)
Operator	ca527
rundate	1/8/2023
Sample name	softwood-50Kmin_2
proceduresegments	Select Gas: Gas 1 ; Ramp 10.00 °C/min to 110.00 °C; Isothermal 30.0 min; Ramp 50.00 °C/min to 900.00 °C; Isothermal 30.0 min; Select Gas: Gas 2 ; Ramp 10.00 °C/min to 950.00 °C; Isothermal 10.0 min; Data Off ; Equilibrate 30.00 °C
[step]
Ramp 10.00 °C/min to 110.00 °C
Time	Temperature	Weight	Weight	Heat Flow
min	°C	%	mg	mW
0.003		100.0242	4.6566
0.012		100.0571	4.6581
0.020		100.0942	4.6598
0.028		100.1337	4.6617
0.037		100.1733	4.6635
0.045	23.75	100.2113	4.6653	-26.036
0.053	23.78	100.2465	4.6669	-26.002
0.062	23.81	100.2777	4.6684	-25.972
0.070	23.84	100.3052	4.6697	-25.947
0.078	23.87	100.3289	4.6708	-25.924
0.087	23.91	100.3481	4.6717	-25.903
0.095	23.94	100.3626	4.6723	-25.881
0.103	23.97	100.3722	4.6728	-25.861
0.112	24.00	100.3785	4.6731	-25.843
0.120	24.03	100.3832	4.6733	-25.824
0.128	24.06	100.3872	4.6735	-25.806
0.137	24.08	100.3909	4.6736	-25.790
0.145	24.11	100.3945	4.6738	-25.773
0.153	24.14	100.3977	4.6740	-25.755
0.162	24.17	100.4008	4.6741	-25.738
0.170	24.20	100.4037	4.6742	-25.721
0.178	24.23	100.4064	4.6744	-25.705
0.187	24.26	100.4090	4.6745	-25.690
0.195	24.29	100.4113	4.6746	-25.674
0.203	24.32	100.4135	4.6747	-25.658
0.212	24.35	100.4155	4.6748	-25.641
0.220	24.38	100.4174	4.6749	-25.624
0.228	24.40	100.4191	4.6750	-25.608
0.237	24.43	100.4206	4.6750	-25.593
0.245	24.46	100.4220	4.6751	-25.578
0.253	24.49	100.4232	4.6751	-25.563
0.262	24.52	100.4242	4.6752	-25.549
0.270	24.55	100.4250	4.6752	-25.535
0.278	24.57	100.4257	4.6753	-25.520
0.287	24.60	100.4263	4.6753	-25.506
0.295	24.63	100.4267	4.6753	-25.493
0.303	24.66	100.4269	4.6753	-25.481
0.312	24.69	100.4270	4.6753	-25.468
0.320	24.72	100.4270	4.6753	-25.456
0.328	24.75	100.4268	4.6753	-25.444
0.337	24.77	100.4265	4.6753	-25.432
0.345	24.80	100.4261	4.6753	-25.420
0.353	24.83	100.4256	4.6753	-25.409
0.362	24.86	100.4249	4.6752	-25.399
0.370	24.89	100.4241	4.6752	-25.388
0.378	24.92	100.4232	4.6751	-25.377
0.387	24.95	100.4221	4.6751	-25.366
0.395	24.98	100.4210	4.6750	-25.355
0.403	25.01	100.4197	4.6750	-25.345
0.412	25.04	100.4183	4.6749	-25.336
0.420	25.07	100.4167	4.6748	-25.326
0.428	25.10	100.4150	4.6748	-25.317
0.437	25.13	100.4132	4.6747	-25.308
0.445	25.16	100.4113	4.6746	-25.299
0.453	25.19	100.4092	4.6745	-25.291
0.462	25.22	100.4070	4.6744	-25.284
0.470	25.25	100.4047	4.6743	-25.277
0.478	25.29	100.4022	4.6742	-25.270
0.487	25.32	100.3996	4.6741	-25.263
0.495	25.35	100.3969	4.6739	-25.257
0.503	25.39	100.3941	4.6738	-25.252
0.512	25.42	100.3912	4.6737	-25.246
0.520	25.46	100.3882	4.6735	-25.241
0.528	25.49	100.3851	4.6734	-25.236
0.537	25.53	100.3819	4.6732	-25.232
0.545	25.56	100.3786	4.6731	-25.227
0.553	25.60	100.3753	4.6729	-25.223
0.562	25.63	100.3718	4.6728	-25.220
0.570	25.67	100.3683	4.6726	-25.217
0.578	25.71	100.3647	4.6724	-25.214
0.587	25.74	100.3610	4.6723	-25.211
0.595	25.78	100.3573	4.6721	-25.209
0.603	25.82	100.3535	4.6719	-25.207
0.612	25.86	100.3496	4.6717	-25.205
0.620	25.90	100.3458	4.6715	-25.204
0.628	25.94	100.3418	4.6714	-25.204
0.637	25.98	100.3378	4.6712	-25.203
0.645	26.02	100.3338	4.6710	-25.203
0.653	26.06	100.3298	4.6708	-25.202
0.662	26.10	100.3257	4.6706	-25.202
0.670	26.14	100.3216	4.6704	-25.202
0.678	26.18	100.3175	4.6702	-25.202
0.687	26.23	100.3133	4.6700	-25.201
0.695	26.27	100.3092	4.6698	-25.201
0.703	26.31	100.3051	4.6696	-25.201
0.712	26.36	100.3010	4.6695	-25.201
0.720	26.40	100.2969	4.6693	-25.201
0.728	26.45	100.2928	4.6691	-25.201
0.737	26.49	100.2887	4.6689	-25.201
0.745	26.54	100.2847	4.6687	-25.202
0.753	26.59	100.2807	4.6685	-25.202
0.762	26.63	100.2767	4.6683	-25.203
0.770	26.68	100.2727	4.6681	-25.204
0.778	26.73	100.2688	4.6680	-25.205
0.787	26.78	100.2649	4.6678	-25.206
0.795	26.83	100.2611	4.6676	-25.206
0.803	26.88	100.2573	4.6674	-25.207
0.812	26.93	100.2536	4.6673	-25.208
0.820	26.98	100.2499	4.6671	-25.209
0.828	27.03	100.2462	4.6669	-25.209
0.837	27.08	100.2427	4.6667	-25.210
0.845	27.13	100.2392	4.6666	-25.210
0.853	27.18	100.2357	4.6664	-25.211
0.862	27.24	100.2323	4.6663	-25.211
0.870	27.29	100.2289	4.6661	-25.212
0.878	27.34	100.2256	4.6660	-25.212
0.887	27.40	100.2224	4.6658	-25.212
0.895	27.45	100.2192	4.6657	-25.212
0.903	27.51	100.2161	4.6655	-25.211
0.912	27.56	100.2130	4.6654	-25.210
0.920	27.62	100.2100	4.6652	-25.209
0.928	27.68	100.2071	4.6651	-25.207
0.937	27.73	100.2042	4.6650	-25.204
0.945	27.79	100.2013	4.6648	-25.201
0.953	27.85	100.1985	4.6647	-25.196
0.962	27.91	100.1958	4.6646	-25.191
0.970	27.97	100.1931	4.6644	-25.184
0.978	28.02	100.1904	4.6643	-25.177
0.987	28.09	100.1878	4.6642	-25.167
0.995	28.15	100.1853	4.6641	-25.157
1.003	28.21	100.1827	4.6640	-25.145
1.012	28.27	100.1802	4.6638	-25.133
1.020	28.33	100.1777	4.6637	-25.119
1.028	28.40	100.1753	4.6636	-25.105
1.037	28.46	100.1729	4.6635	-25.090
1.045	28.52	100.1705	4.6634	-25.074
1.053	28.59	100.1682	4.6633	-25.057
1.062	28.65	100.1658	4.6632	-25.039
1.070	28.72	100.1636	4.6631	-25.019
1.078	28.78	100.1613	4.6630	-25.000
1.087	28.85	100.1590	4.6628	-24.980
1.095	28.92	100.1568	4.6627	-24.959
1.103	28.98	100.1546	4.6626	-24.937
1.112	29.05	100.1525	4.6625	-24.916
1.120	29.12	100.1503	4.6624	-24.894
1.128	29.19	100.1481	4.6623	-24.871
1.137	29.25	100.1460	4.6622	-24.847
1.145	29.32	100.1438	4.6621	-24.823
1.153	29.39	100.1417	4.6620	-24.800
1.162	29.46	100.1395	4.6619	-24.775
1.170	29.53	100.1373	4.6618	-24.750
1.178	29.61	100.1352	4.6617	-24.723
1.187	29.68	100.1330	4.6616	-24.695
1.195	29.75	100.1308	4.6615	-24.665
1.203	29.82	100.1286	4.6614	-24.635
1.212	29.90	100.1263	4.6613	-24.604
1.220	29.97	100.1241	4.6612	-24.572
1.228	30.04	100.1218	4.6611	-24.540
1.237	30.12	100.1196	4.6610	-24.507
1.245	30.19	100.1173	4.6609	-24.473
1.253	30.27	100.1149	4.6608	-24.438
1.262	30.34	100.1126	4.6607	-24.402
1.270	30.42	100.1103	4.6606	-24.366
1.278	30.49	100.1079	4.6605	-24.331
1.287	30.57	100.1056	4.6604	-24.293
1.295	30.65	100.1032	4.6602	-24.255
1.303	30.72	100.1007	4.6601	-24.216
1.312	30.80	100.0983	4.6600	-24.175
1.320	30.88	100.0959	4.6599	-24.136
1.328	30.96	100.0934	4.6598	-24.095
1.337	31.04	100.0909	4.6597	-24.054
1.345	31.12	100.0884	4.6596	-24.013
1.353	31.20	100.0858	4.6594	-23.971
1.362	31.28	100.0833	4.6593	-23.927
1.370	31.36	100.0807	4.6592	-23.882
1.378	31.44	100.0781	4.6591	-23.837
1.387	31.52	100.0755	4.6590	-23.792
1.395	31.60	100.0729	4.6588	-23.747
1.403	31.68	100.0702	4.6587	-23.701
1.412	31.76	100.0675	4.6586	-23.655
1.420	31.84	100.0648	4.6585	-23.607
1.428	31.93	100.0621	4.6583	-23.560
1.437	32.01	100.0593	4.6582	-23.512
1.445	32.09	100.0565	4.6581	-23.464
1.453	32.18	100.0537	4.6579	-23.416
1.462	32.26	100.0508	4.6578	-23.368
1.470	32.34	100.0480	4.6577	-23.318
1.478	32.43	100.0450	4.6575	-23.269
1.487	32.51	100.0421	4.6574	-23.217
1.495	32.60	100.0391	4.6573	-23.166
1.503	32.68	100.0362	4.6571	-23.115
1.512	32.77	100.0331	4.6570	-23.062
1.520	32.85	100.0301	4.6568	-23.009
1.528	32.94	100.0271	4.6567	-22.957
1.537	33.03	100.0240	4.6566	-22.903
1.545	33.11	100.0209	4.6564	-22.850
1.553	33.20	100.0178	4.6563	-22.796
1.562	33.28	100.0147	4.6561	-22.742
1.570	33.37	100.0116	4.6560	-22.688
1.578	33.46	100.0084	4.6558	-22.633
1.587	33.54	100.0052	4.6557	-22.577
1.595	33.63	100.0020	4.6555	-22.521
1.603	33.72	99.9988	4.6554	-22.465
1.612	33.81	99.9955	4.6552	-22.409
1.620	33.90	99.9923	4.6551	-22.351
1.628	33.99	99.9890	4.6549	-22.293
1.637	34.08	99.9857	4.6548	-22.235
1.645	34.17	99.9823	4.6546	-22.177
1.653	34.25	99.9790	4.6545	-22.120
1.662	34.34	99.9756	4.6543	-22.062
1.670	34.43	99.9722	4.6542	-22.004
1.678	34.52	99.9688	4.6540	-21.944
1.687	34.61	99.9654	4.6538	-21.884
1.695	34.70	99.9619	4.6537	-21.823
1.703	34.79	99.9584	4.6535	-21.763
1.712	34.88	99.9549	4.6533	-21.703
1.720	34.98	99.9514	4.6532	-21.643
1.728	35.07	99.9479	4.6530	-21.582
1.737	35.16	99.9443	4.6529	-21.520
1.745	35.25	99.9408	4.6527	-21.457
1.753	35.34	99.9372	4.6525	-21.394
1.762	35.43	99.9336	4.6524	-21.332
1.770	35.52	99.9300	4.6522	-21.270
1.778	35.62	99.9263	4.6520	-21.208
1.787	35.71	99.9227	4.6518	-21.146
1.795	35.80	99.9190	4.6517	-21.083
1.803	35.89	99.9153	4.6515	-21.020
1.812	35.98	99.9116	4.6513	-20.957
1.820	36.08	99.9079	4.6512	-20.895
1.828	36.17	99.9041	4.6510	-20.833
1.837	36.26	99.9003	4.6508	-20.769
1.845	36.35	99.8965	4.6506	-20.706
1.853	36.45	99.8927	4.6504	-20.641
1.862	36.54	99.8888	4.6503	-20.576
1.870	36.63	99.8849	4.6501	-20.511
1.878	36.72	99.8810	4.6499	-20.447
1.887	36.82	99.8771	4.6497	-20.381
1.895	36.91	99.8731	4.6495	-20.314
1.903	37.01	99.8692	4.6494	-20.247
1.912	37.10	99.8652	4.6492	-20.181
1.920	37.19	99.8612	4.6490	-20.115
1.928	37.29	99.8572	4.6488	-20.049
1.937	37.38	99.8531	4.6486	-19.984
1.945	37.48	99.8491	4.6484	-19.918
1.953	37.57	99.8450	4.6482	-19.853
1.962	37.66	99.8410	4.6480	-19.787
1.970	37.76	99.8369	4.6479	-19.721
1.978	37.85	99.8328	4.6477	-19.655
1.987	37.95	99.8286	4.6475	-19.590
1.995	38.04	99.8245	4.6473	-19.524
2.003	38.13	99.8203	4.6471	-19.458
2.012	38.23	99.8161	4.6469	-19.390
2.020	38.32	99.8119	4.6467	-19.324
2.028	38.42	99.8076	4.6465	-19.257
2.037	38.51	99.8034	4.6463	-19.190
2.045	38.61	99.7991	4.6461	-19.123
2.053	38.70	99.7948	4.6459	-19.056
2.062	38.80	99.7905	4.6457	-18.989
2.070	38.89	99.7861	4.6455	-18.921
2.078	38.99	99.7818	4.6453	-18.853
2.087	39.08	99.7774	4.6451	-18.784
2.095	39.17	99.7730	4.6449	-18.716
2.103	39.27	99.7686	4.6447	-18.648
2.112	39.36	99.7641	4.6445	-18.581
2.120	39.46	99.7596	4.6443	-18.512
2.128	39.55	99.7551	4.6440	-18.444
2.137	39.65	99.7506	4.6438	-18.377
2.145	39.74	99.7461	4.6436	-18.311
2.153	39.84	99.7415	4.6434	-18.242
2.162	39.93	99.7369	4.6432	-18.175
2.170	40.03	99.7323	4.6430	-18.109
2.178	40.12	99.7277	4.6428	-18.042
2.187	40.22	99.7230	4.6426	-17.974
2.195	40.31	99.7184	4.6423	-17.906
2.203	40.41	99.7137	4.6421	-17.838
2.212	40.50	99.7090	4.6419	-17.770
2.220	40.60	99.7043	4.6417	-17.701
2.228	40.69	99.6996	4.6415	-17.632
2.237	40.79	99.6948	4.6412	-17.566
2.245	40.88	99.6901	4.6410	-17.499
2.253	40.98	99.6853	4.6408	-17.431
2.262	41.07	99.6805	4.6406	-17.363
2.270	41.17	99.6757	4.6403	-17.295
2.278	41.26	99.6709	4.6401	-17.227
2.287	41.36	99.6660	4.6399	-17.159
2.295	41.45	99.6611	4.6397	-17.091
2.303	41.55	99.6562	4.6394	-17.023
2.312	41.64	99.6513	4.6392	-16.955
2.320	41.74	99.6463	4.6390	-16.885
2.328	41.83	99.6413	4.6387	-16.817
2.337	41.93	99.6363	4.6385	-16.748
2.345	42.02	99.6313	4.6383	-16.679
2.353	42.11	99.6262	4.6380	-16.611
2.362	42.21	99.6211	4.6378	-16.543
2.370	42.30	99.6160	4.6376	-16.476
2.378	42.40	99.6109	4.6373	-16.407
2.387	42.49	99.6057	4.6371	-16.339
2.395	42.59	99.6006	4.6369	-16.272
2.403	42.68	99.5954	4.6366	-16.203
2.412	42.78	99.5901	4.6364	-16.135
2.420	42.87	99.5849	4.6361	-16.067
2.428	42.96	99.5796	4.6359	-16.000
2.437	43.06	99.5743	4.6356	-15.933
2.445	43.15	99.5690	4.6354	-15.865
2.453	43.25	99.5637	4.6351	-15.797
2.462	43.34	99.5584	4.6349	-15.729
2.470	43.43	99.5530	4.6346	-15.662
2.478	43.53	99.5477	4.6344	-15.595
2.487	43.62	99.5423	4.6341	-15.528
2.495	43.72	99.5369	4.6339	-15.462
2.503	43.81	99.5315	4.6336	-15.394
2.512	43.90	99.5260	4.6334	-15.327
2.520	44.00	99.5206	4.6331	-15.260
2.528	44.09	99.5151	4.6329	-15.194
2.537	44.18	99.5096	4.6326	-15.128
2.545	44.28	99.5041	4.6324	-15.060
2.553	44.37	99.4985	4.6321	-14.994
2.562	44.47	99.4930	4.6318	-14.927
2.570	44.56	99.4874	4.6316	-14.860
2.578	44.65	99.4818	4.6313	-14.794
2.587	44.74	99.4762	4.6311	-14.727
2.595	44.84	99.4706	4.6308	-14.661
2.603	44.93	99.4650	4.6305	-14.595
2.612	45.02	99.4593	4.6303	-14.529
2.620	45.12	99.4537	4.6300	-14.463
2.628	45.21	99.4480	4.6297	-14.398
2.637	45.30	99.4423	4.6295	-14.333
2.645	45.39	99.4366	4.6292	-14.268
2.653	45.49	99.4309	4.6290	-14.204
2.662	45.58	99.4251	4.6287	-14.139
2.670	45.67	99.4194	4.6284	-14.074
2.678	45.77	99.4136	4.6281	-14.008
2.687	45.86	99.4078	4.6279	-13.943
2.695	45.95	99.4019	4.6276	-13.879
2.703	46.04	99.3961	4.6273	-13.814
2.712	46.14	99.3902	4.6271	-13.750
2.720	46.23	99.3844	4.6268	-13.685
2.728	46.32	99.3785	4.6265	-13.621
2.737	46.41	99.3726	4.6262	-13.556
2.745	46.50	99.3666	4.6260	-13.492
2.753	46.59	99.3607	4.6257	-13.429
2.762	46.69	99.3548	4.6254	-13.366
2.770	46.78	99.3488	4.6251	-13.303
2.778	46.87	99.3428	4.6248	-13.239
2.787	46.96	99.3368	4.6246	-13.177
2.795	47.05	99.3307	4.6243	-13.113
2.803	47.15	99.3247	4.6240	-13.050
2.812	47.24	99.3186	4.6237	-12.987
2.820	47.33	99.3124	4.6234	-12.925
2.828	47.42	99.3063	4.6232	-12.862
2.837	47.51	99.3002	4.6229	-12.800
2.845	47.60	99.2940	4.6226	-12.737
2.853	47.69	99.2878	4.6223	-12.675
2.862	47.78	99.2816	4.6220	-12.612
2.870	47.87	99.2754	4.6217	-12.549
2.878	47.96	99.2692	4.6214	-12.486
2.887	48.06	99.2630	4.6211	-12.424
2.895	48.15	99.2568	4.6208	-12.362
2.903	48.24	99.2505	4.6206	-12.300
2.912	48.33	99.2442	4.6203	-12.238
2.920	48.42	99.2379	4.6200	-12.176
2.928	48.51	99.2316	4.6197	-12.114
2.937	48.60	99.2253	4.6194	-12.052
2.945	48.69	99.2190	4.6191	-11.990
2.953	48.78	99.2126	4.6188	-11.929
2.962	48.87	99.2062	4.6185	-11.869
2.970	48.96	99.1998	4.6182	-11.808
2.978	49.05	99.1934	4.6179	-11.747
2.987	49.14	99.1870	4.6176	-11.686
2.995	49.23	99.1805	4.6173	-11.626
3.003	49.32	99.1741	4.6170	-11.566
3.012	49.41	99.1676	4.6167	-11.506
3.020	49.50	99.1611	4.6164	-11.446
3.028	49.59	99.1546	4.6161	-11.388
3.037	49.68	99.1481	4.6158	-11.329
3.045	49.77	99.1415	4.6155	-11.270
3.053	49.86	99.1350	4.6152	-11.211
3.062	49.95	99.1284	4.6149	-11.152
3.070	50.04	99.1218	4.6146	-11.092
3.078	50.12	99.1152	4.6143	-11.033
3.087	50.21	99.1086	4.6139	-10.974
3.095	50.30	99.1020	4.6136	-10.915
3.103	50.39	99.0953	4.6133	-10.857
3.112	50.48	99.0887	4.6130	-10.798
3.120	50.57	99.0821	4.6127	-10.740
3.128	50.66	99.0754	4.6124	-10.681
3.137	50.75	99.0688	4.6121	-10.623
3.145	50.84	99.0621	4.6118	-10.566
3.153	50.93	99.0554	4.6115	-10.508
3.162	51.01	99.0487	4.6112	-10.451
3.170	51.10	99.0420	4.6108	-10.393
3.178	51.19	99.0353	4.6105	-10.336
3.187	51.28	99.0285	4.6102	-10.278
3.195	51.37	99.0218	4.6099	-10.221
3.203	51.45	99.0150	4.6096	-10.164
3.212	51.54	99.0082	4.6093	-10.107
3.220	51.63	99.0014	4.6090	-10.050
3.228	51.72	98.9946	4.6086	-9.993
3.237	51.81	98.9878	4.6083	-9.938
3.245	51.89	98.9809	4.6080	-9.882
3.253	51.98	98.9741	4.6077	-9.826
3.262	52.07	98.9672	4.6074	-9.769
3.270	52.16	98.9604	4.6070	-9.713
3.278	52.25	98.9535	4.6067	-9.657
3.287	52.33	98.9466	4.6064	-9.602
3.295	52.42	98.9397	4.6061	-9.546
3.303	52.51	98.9328	4.6058	-9.491
3.312	52.60	98.9260	4.6054	-9.436
3.320	52.69	98.9191	4.6051	-9.380
3.328	52.77	98.9121	4.6048	-9.325
3.337	52.86	98.9052	4.6045	-9.270
3.345	52.95	98.8983	4.6042	-9.216
3.353	53.03	98.8914	4.6038	-9.162
3.362	53.12	98.8844	4.6035	-9.109
3.370	53.21	98.8775	4.6032	-9.055
3.378	53.29	98.8706	4.6029	-9.001
3.387	53.38	98.8636	4.6025	-8.948
3.395	53.47	98.8566	4.6022	-8.894
3.403	53.56	98.8496	4.6019	-8.841
3.412	53.64	98.8426	4.6016	-8.787
3.420	53.73	98.8356	4.6012	-8.734
3.428	53.82	98.8286	4.6009	-8.680
3.437	53.90	98.8215	4.6006	-8.626
3.445	53.99	98.8145	4.6003	-8.573
3.453	54.08	98.8074	4.5999	-8.519
3.462	54.16	98.8003	4.5996	-8.466
3.470	54.25	98.7933	4.5993	-8.413
3.478	54.34	98.7862	4.5989	-8.360
3.487	54.42	98.7791	4.5986	-8.308
3.495	54.51	98.7720	4.5983	-8.256
3.503	54.60	98.7649	4.5979	-8.205
3.512	54.68	98.7579	4.5976	-8.154
3.520	54.77	98.7508	4.5973	-8.102
3.528	54.85	98.7437	4.5970	-8.051
3.537	54.94	98.7366	4.5966	-8.000
3.545	55.03	98.7295	4.5963	-7.948
3.553	55.11	98.7224	4.5960	-7.895
3.562	55.20	98.7153	4.5956	-7.845
3.570	55.28	98.7082	4.5953	-7.794
3.578	55.37	98.7011	4.5950	-7.741
3.587	55.46	98.6940	4.5946	-7.689
3.595	55.54	98.6869	4.5943	-7.637
3.603	55.63	98.6798	4.5940	-7.586
3.612	55.72	98.6728	4.5937	-7.533
3.620	55.80	98.6657	4.5933	-7.481
3.628	55.89	98.6586	4.5930	-7.431
3.637	55.97	98.6515	4.5927	-7.381
3.645	56.06	98.6444	4.5923	-7.330
3.653	56.14	98.6373	4.5920	-7.279
3.662	56.23	98.6303	4.5917	-7.229
3.670	56.32	98.6232	4.5913	-7.179
3.678	56.40	98.6160	4.5910	-7.130
3.687	56.49	98.6089	4.5907	-7.081
3.695	56.57	98.6019	4.5904	-7.033
3.703	56.66	98.5948	4.5900	-6.984
3.712	56.74	98.5877	4.5897	-6.935
3.720	56.83	98.5806	4.5894	-6.886
3.728	56.91	98.5735	4.5890	-6.836
3.737	57.00	98.5664	4.5887	-6.787
3.745	57.09	98.5593	4.5884	-6.739
3.753	57.17	98.5522	4.5880	-6.690
3.762	57.26	98.5452	4.5877	-6.640
3.770	57.34	98.5381	4.5874	-6.591
3.778	57.43	98.5310	4.5871	-6.543
3.787	57.51	98.5239	4.5867	-6.495
3.795	57.60	98.5168	4.5864	-6.447
3.803	57.68	98.5097	4.5861	-6.398
3.812	57.77	98.5027	4.5857	-6.351
3.820	57.85	98.4956	4.5854	-6.304
3.828	57.94	98.4885	4.5851	-6.256
3.837	58.02	98.4814	4.5847	-6.208
3.845	58.11	98.4744	4.5844	-6.160
3.853	58.19	98.4673	4.5841	-6.112
3.862	58.28	98.4602	4.5838	-6.064
3.870	58.36	98.4531	4.5834	-6.017
3.878	58.45	98.4461	4.5831	-5.970
3.887	58.53	98.4390	4.5828	-5.923
3.895	58.62	98.4319	4.5824	-5.875
3.903	58.71	98.4249	4.5821	-5.827
3.912	58.79	98.4178	4.5818	-5.781
3.920	58.88	98.4108	4.5815	-5.735
3.928	58.96	98.4037	4.5811	-5.689
3.937	59.05	98.3967	4.5808	-5.642
3.945	59.13	98.3897	4.5805	-5.596
3.953	59.22	98.3827	4.5802	-5.551
3.962	59.30	98.3757	4.5798	-5.505
3.970	59.39	98.3687	4.5795	-5.460
3.978	59.47	98.3617	4.5792	-5.415
3.987	59.56	98.3548	4.5789	-5.370
3.995	59.64	98.3478	4.5785	-5.324
4.003	59.73	98.3409	4.5782	-5.279
4.012	59.81	98.3339	4.5779	-5.233
4.020	59.90	98.3270	4.5776	-5.187
4.028	59.98	98.3201	4.5772	-5.141
4.037	60.06	98.3132	4.5769	-5.095
4.045	60.15	98.3063	4.5766	-5.050
4.053	60.23	98.2994	4.5763	-5.004
4.062	60.32	98.2925	4.5760	-4.958
4.070	60.40	98.2856	4.5756	-4.913
4.078	60.49	98.2788	4.5753	-4.867
4.087	60.57	98.2719	4.5750	-4.820
4.095	60.66	98.2650	4.5747	-4.775
4.103	60.74	98.2582	4.5744	-4.730
4.112	60.83	98.2513	4.5740	-4.686
4.120	60.91	98.2444	4.5737	-4.641
4.128	61.00	98.2376	4.5734	-4.596
4.137	61.08	98.2307	4.5731	-4.551
4.145	61.17	98.2239	4.5728	-4.507
4.153	61.25	98.2171	4.5724	-4.462
4.162	61.34	98.2103	4.5721	-4.418
4.170	61.42	98.2035	4.5718	-4.373
4.178	61.51	98.1968	4.5715	-4.329
4.187	61.59	98.1900	4.5712	-4.284
4.195	61.68	98.1833	4.5709	-4.239
4.203	61.76	98.1766	4.5706	-4.193
4.212	61.85	98.1699	4.5702	-4.150
4.220	61.93	98.1632	4.5699	-4.105
4.228	62.02	98.1565	4.5696	-4.061
4.237	62.10	98.1499	4.5693	-4.018
4.245	62.19	98.1432	4.5690	-3.974
4.253	62.27	98.1366	4.5687	-3.931
4.262	62.36	98.1299	4.5684	-3.889
4.270	62.44	98.1233	4.5681	-3.847
4.278	62.53	98.1167	4.5678	-3.804
4.287	62.61	98.1101	4.5675	-3.761
4.295	62.70	98.1035	4.5672	-3.718
4.303	62.78	98.0969	4.5668	-3.675
4.312	62.87	98.0903	4.5665	-3.632
4.320	62.95	98.0837	4.5662	-3.590
4.328	63.03	98.0772	4.5659	-3.548
4.337	63.12	98.0706	4.5656	-3.505
4.345	63.20	98.0641	4.5653	-3.462
4.353	63.29	98.0576	4.5650	-3.420
4.362	63.37	98.0511	4.5647	-3.378
4.370	63.46	98.0447	4.5644	-3.337
4.378	63.54	98.0382	4.5641	-3.295
4.387	63.63	98.0318	4.5638	-3.252
4.395	63.71	98.0254	4.5635	-3.209
4.403	63.80	98.0190	4.5632	-3.167
4.412	63.88	98.0126	4.5629	-3.125
4.420	63.97	98.0062	4.5626	-3.084
4.428	64.05	97.9998	4.5623	-3.042
4.437	64.14	97.9935	4.5620	-3.001
4.445	64.22	97.9872	4.5617	-2.959
4.453	64.31	97.9808	4.5614	-2.918
4.462	64.39	97.9746	4.5612	-2.875
4.470	64.48	97.9683	4.5609	-2.834
4.478	64.56	97.9620	4.5606	-2.793
4.487	64.65	97.9557	4.5603	-2.752
4.495	64.73	97.9495	4.5600	-2.711
4.503	64.82	97.9433	4.5597	-2.669
4.512	64.90	97.9371	4.5594	-2.627
4.520	64.99	97.9309	4.5591	-2.586
4.528	65.07	97.9247	4.5588	-2.545
4.537	65.16	97.9186	4.5585	-2.504
4.545	65.24	97.9124	4.5583	-2.464
4.553	65.33	97.9063	4.5580	-2.424
4.562	65.41	97.9001	4.5577	-2.383
4.570	65.50	97.8940	4.5574	-2.343
4.578	65.58	97.8879	4.5571	-2.304
4.587	65.67	97.8819	4.5568	-2.263
4.595	65.75	97.8758	4.5566	-2.223
4.603	65.84	97.8697	4.5563	-2.183
4.612	65.92	97.8637	4.5560	-2.143
4.620	66.01	97.8577	4.5557	-2.102
4.628	66.09	97.8517	4.5554	-2.062
4.637	66.18	97.8458	4.5552	-2.023
4.645	66.26	97.8398	4.5549	-1.983
4.653	66.35	97.8339	4.5546	-1.942
4.662	66.43	97.8280	4.5543	-1.902
4.670	66.52	97.8221	4.5541	-1.862
4.678	66.60	97.8162	4.5538	-1.823
4.687	66.69	97.8103	4.5535	-1.783
4.695	66.77	97.8045	4.5532	-1.743
4.703	66.86	97.7987	4.5530	-1.704
4.712	66.94	97.7928	4.5527	-1.664
4.720	67.03	97.7870	4.5524	-1.625
4.728	67.11	97.7812	4.5522	-1.585
4.737	67.20	97.7755	4.5519	-1.547
4.745	67.29	97.7697	4.5516	-1.508
4.753	67.37	97.7640	4.5513	-1.470
4.762	67.46	97.7582	4.5511	-1.432
4.770	67.54	97.7525	4.5508	-1.393
4.778	67.63	97.7469	4.5506	-1.355
4.787	67.71	97.7412	4.5503	-1.317
4.795	67.80	97.7356	4.5500	-1.279
4.803	67.88	97.7300	4.5498	-1.241
4.812	67.97	97.7244	4.5495	-1.203
4.820	68.05	97.7188	4.5492	-1.165
4.828	68.14	97.7132	4.5490	-1.128
4.837	68.22	97.7077	4.5487	-1.090
4.845	68.31	97.7022	4.5485	-1.051
4.853	68.39	97.6967	4.5482	-1.013
4.862	68.48	97.6913	4.5480	-0.976
4.870	68.56	97.6858	4.5477	-0.938
4.878	68.65	97.6804	4.5475	-0.901
4.887	68.73	97.6749	4.5472	-0.863
4.895	68.82	97.6696	4.5470	-0.825
4.903	68.91	97.6642	4.5467	-0.786
4.912	68.99	97.6588	4.5465	-0.747
4.920	69.08	97.6535	4.5462	-0.709
4.928	69.16	97.6481	4.5460	-0.672
4.937	69.25	97.6428	4.5457	-0.635
4.945	69.33	97.6375	4.5455	-0.599
4.953	69.42	97.6322	4.5452	-0.562
4.962	69.50	97.6269	4.5450	-0.524
4.970	69.59	97.6217	4.5447	-0.487
4.978	69.68	97.6164	4.5445	-0.451
4.987	69.76	97.6112	4.5442	-0.414
4.995	69.85	97.6060	4.5440	-0.378
5.003	69.93	97.6008	4.5438	-0.342
5.012	70.02	97.5957	4.5435	-0.305
5.020	70.10	97.5905	4.5433	-0.268
5.028	70.19	97.5854	4.5430	-0.230
5.037	70.27	97.5803	4.5428	-0.192
5.045	70.36	97.5752	4.5426	-0.155
5.053	70.45	97.5701	4.5423	-0.119
5.062	70.53	97.5651	4.5421	-0.082
5.070	70.62	97.5600	4.5419	-0.045
5.078	70.70	97.5550	4.5416	-0.008
5.087	70.79	97.5500	4.5414	0.029
5.095	70.88	97.5450	4.5412	0.064
5.103	70.96	97.5401	4.5409	0.100
5.112	71.05	97.5351	4.5407	0.135
5.120	71.13	97.5302	4.5405	0.170
5.128	71.22	97.5253	4.5402	0.206
5.137	71.30	97.5205	4.5400	0.241
5.145	71.39	97.5156	4.5398	0.277
5.153	71.48	97.5108	4.5396	0.313
5.162	71.56	97.5060	4.5393	0.348
5.170	71.65	97.5012	4.5391	0.384
5.178	71.73	97.4964	4.5389	0.420
5.187	71.82	97.4917	4.5387	0.455
5.195	71.91	97.4869	4.5385	0.490
5.203	71.99	97.4822	4.5382	0.526
5.212	72.08	97.4775	4.5380	0.561
5.220	72.16	97.4728	4.5378	0.594
5.228	72.25	97.4681	4.5376	0.628
5.237	72.34	97.4634	4.5374	0.662
5.245	72.42	97.4588	4.5371	0.696
5.253	72.51	97.4542	4.5369	0.730
5.262	72.59	97.4496	4.5367	0.765
5.270	72.68	97.4450	4.5365	0.800
5.278	72.76	97.4404	4.5363	0.834
5.287	72.85	97.4359	4.5361	0.869
5.295	72.94	97.4314	4.5359	0.904
5.303	73.02	97.4269	4.5357	0.940
5.312	73.11	97.4224	4.5354	0.975
5.320	73.19	97.4180	4.5352	1.009
5.328	73.28	97.4136	4.5350	1.043
5.337	73.37	97.4092	4.5348	1.076
5.345	73.45	97.4048	4.5346	1.110
5.353	73.54	97.4004	4.5344	1.144
5.362	73.62	97.3961	4.5342	1.177
5.370	73.71	97.3917	4.5340	1.209
5.378	73.80	97.3874	4.5338	1.240
5.387	73.88	97.3831	4.5336	1.272
5.395	73.97	97.3787	4.5334	1.304
5.403	74.06	97.3744	4.5332	1.338
5.412	74.14	97.3702	4.5330	1.371
5.420	74.23	97.3659	4.5328	1.404
5.428	74.31	97.3617	4.5326	1.437
5.437	74.40	97.3575	4.5324	1.469
5.445	74.49	97.3533	4.5322	1.502
5.453	74.57	97.3491	4.5320	1.535
5.462	74.66	97.3450	4.5318	1.568
5.470	74.75	97.3409	4.5317	1.601
5.478	74.83	97.3368	4.5315	1.634
5.487	74.92	97.3328	4.5313	1.667
5.495	75.01	97.3288	4.5311	1.698
5.503	75.09	97.3248	4.5309	1.730
5.512	75.18	97.3208	4.5307	1.762
5.520	75.26	97.3169	4.5305	1.795
5.528	75.35	97.3129	4.5303	1.827
5.537	75.44	97.3090	4.5302	1.860
5.545	75.52	97.3051	4.5300	1.891
5.553	75.61	97.3012	4.5298	1.924
5.562	75.69	97.2973	4.5296	1.955
5.570	75.78	97.2934	4.5294	1.986
5.578	75.87	97.2896	4.5293	2.018
5.587	75.95	97.2858	4.5291	2.050
5.595	76.04	97.2820	4.5289	2.082
5.603	76.12	97.2782	4.5287	2.113
5.612	76.21	97.2744	4.5286	2.144
5.620	76.30	97.2706	4.5284	2.175
5.628	76.38	97.2669	4.5282	2.206
5.637	76.47	97.2632	4.5280	2.236
5.645	76.56	97.2595	4.5279	2.266
5.653	76.64	97.2558	4.5277	2.297
5.662	76.73	97.2522	4.5275	2.327
5.670	76.82	97.2486	4.5274	2.357
5.678	76.90	97.2449	4.5272	2.386
5.687	76.99	97.2413	4.5270	2.417
5.695	77.08	97.2378	4.5269	2.447
5.703	77.16	97.2342	4.5267	2.478
5.712	77.25	97.2307	4.5265	2.509
5.720	77.33	97.2272	4.5264	2.539
5.728	77.42	97.2237	4.5262	2.570
5.737	77.51	97.2202	4.5260	2.601
5.745	77.59	97.2168	4.5259	2.631
5.753	77.68	97.2133	4.5257	2.662
5.762	77.77	97.2099	4.5256	2.692
5.770	77.85	97.2065	4.5254	2.722
5.778	77.94	97.2031	4.5252	2.752
5.787	78.03	97.1998	4.5251	2.781
5.795	78.11	97.1964	4.5249	2.810
5.803	78.20	97.1931	4.5248	2.840
5.812	78.29	97.1898	4.5246	2.870
5.820	78.37	97.1865	4.5245	2.899
5.828	78.46	97.1833	4.5243	2.929
5.837	78.55	97.1800	4.5242	2.958
5.845	78.63	97.1768	4.5240	2.988
5.853	78.72	97.1735	4.5239	3.017
5.862	78.81	97.1703	4.5237	3.047
5.870	78.89	97.1671	4.5236	3.077
5.878	78.98	97.1639	4.5234	3.106
5.887	79.07	97.1608	4.5233	3.135
5.895	79.15	97.1576	4.5231	3.165
5.903	79.24	97.1545	4.5230	3.195
5.912	79.33	97.1514	4.5228	3.223
5.920	79.41	97.1483	4.5227	3.252
5.928	79.50	97.1453	4.5225	3.281
5.937	79.59	97.1422	4.5224	3.311
5.945	79.67	97.1392	4.5223	3.340
5.953	79.76	97.1362	4.5221	3.369
5.962	79.85	97.1332	4.5220	3.399
5.970	79.93	97.1302	4.5218	3.427
5.978	80.02	97.1272	4.5217	3.454
5.987	80.11	97.1243	4.5216	3.482
5.995	80.20	97.1213	4.5214	3.510
6.003	80.28	97.1184	4.5213	3.538
6.012	80.37	97.1155	4.5212	3.566
6.020	80.46	97.1126	4.5210	3.592
6.028	80.54	97.1097	4.5209	3.617
6.037	80.63	97.1068	4.5208	3.644
6.045	80.71	97.1039	4.5206	3.669
6.053	80.80	97.1011	4.5205	3.696
6.062	80.89	97.0983	4.5204	3.722
6.070	80.98	97.0955	4.5202	3.749
6.078	81.06	97.0927	4.5201	3.775
6.087	81.15	97.0900	4.5200	3.801
6.095	81.24	97.0873	4.5198	3.827
6.103	81.32	97.0846	4.5197	3.854
6.112	81.41	97.0819	4.5196	3.881
6.120	81.50	97.0792	4.5195	3.907
6.128	81.58	97.0765	4.5193	3.934
6.137	81.67	97.0739	4.5192	3.961
6.145	81.76	97.0712	4.5191	3.987
6.153	81.84	97.0686	4.5190	4.014
6.162	81.93	97.0660	4.5189	4.040
6.170	82.02	97.0635	4.5187	4.066
6.178	82.10	97.0609	4.5186	4.092
6.187	82.19	97.0584	4.5185	4.117
6.195	82.28	97.0559	4.5184	4.141
6.203	82.36	97.0534	4.5183	4.167
6.212	82.45	97.0509	4.5182	4.192
6.220	82.54	97.0485	4.5180	4.217
6.228	82.63	97.0460	4.5179	4.243
6.237	82.71	97.0436	4.5178	4.269
6.245	82.80	97.0412	4.5177	4.295
6.253	82.89	97.0388	4.5176	4.322
6.262	82.97	97.0364	4.5175	4.348
6.270	83.06	97.0341	4.5174	4.373
6.278	83.15	97.0317	4.5173	4.400
6.287	83.23	97.0293	4.5171	4.425
6.295	83.32	97.0269	4.5170	4.450
6.303	83.41	97.0246	4.5169	4.475
6.312	83.49	97.0223	4.5168	4.500
6.320	83.58	97.0200	4.5167	4.524
6.328	83.67	97.0177	4.5166	4.547
6.337	83.75	97.0154	4.5165	4.571
6.345	83.84	97.0132	4.5164	4.595
6.353	83.93	97.0109	4.5163	4.621
6.362	84.01	97.0087	4.5162	4.646
6.370	84.10	97.0065	4.5161	4.670
6.378	84.19	97.0043	4.5160	4.695
6.387	84.27	97.0022	4.5159	4.719
6.395	84.36	97.0000	4.5158	4.744
6.403	84.45	96.9979	4.5157	4.769
6.412	84.53	96.9957	4.5156	4.793
6.420	84.62	96.9936	4.5155	4.817
6.428	84.71	96.9915	4.5154	4.842
6.437	84.80	96.9894	4.5153	4.866
6.445	84.88	96.9873	4.5152	4.890
6.453	84.97	96.9853	4.5151	4.913
6.462	85.06	96.9832	4.5150	4.937
6.470	85.14	96.9812	4.5149	4.962
6.478	85.23	96.9792	4.5148	4.985
6.487	85.32	96.9771	4.5147	5.008
6.495	85.40	96.9751	4.5146	5.032
6.503	85.49	96.9732	4.5145	5.055
6.512	85.58	96.9712	4.5144	5.077
6.520	85.66	96.9693	4.5144	5.099
6.528	85.75	96.9674	4.5143	5.121
6.537	85.84	96.9654	4.5142	5.144
6.545	85.92	96.9636	4.5141	5.165
6.553	86.01	96.9617	4.5140	5.187
6.562	86.10	96.9598	4.5139	5.208
6.570	86.18	96.9580	4.5138	5.231
6.578	86.27	96.9561	4.5137	5.252
6.587	86.36	96.9543	4.5137	5.274
6.595	86.44	96.9525	4.5136	5.297
6.603	86.53	96.9507	4.5135	5.319
6.612	86.62	96.9490	4.5134	5.340
6.620	86.70	96.9472	4.5133	5.363
6.628	86.79	96.9455	4.5132	5.385
6.637	86.88	96.9437	4.5132	5.406
6.645	86.96	96.9420	4.5131	5.427
6.653	87.05	96.9403	4.5130	5.448
6.662	87.14	96.9385	4.5129	5.470
6.670	87.22	96.9369	4.5128	5.489
6.678	87.31	96.9352	4.5128	5.510
6.687	87.40	96.9335	4.5127	5.531
6.695	87.48	96.9318	4.5126	5.552
6.703	87.57	96.9302	4.5125	5.573
6.712	87.66	96.9285	4.5125	5.593
6.720	87.74	96.9269	4.5124	5.613
6.728	87.83	96.9253	4.5123	5.634
6.737	87.92	96.9237	4.5122	5.655
6.745	88.00	96.9221	4.5122	5.675
6.753	88.09	96.9206	4.5121	5.697
6.762	88.18	96.9190	4.5120	5.718
6.770	88.26	96.9175	4.5119	5.737
6.778	88.35	96.9160	4.5119	5.757
6.787	88.44	96.9145	4.5118	5.778
6.795	88.52	96.9130	4.5117	5.798
6.803	88.61	96.9115	4.5117	5.819
6.812	88.70	96.9101	4.5116	5.840
6.820	88.78	96.9086	4.5115	5.860
6.828	88.87	96.9072	4.5115	5.879
6.837	88.96	96.9057	4.5114	5.898
6.845	89.04	96.9042	4.5113	5.916
6.853	89.13	96.9028	4.5113	5.936
6.862	89.22	96.9014	4.5112	5.955
6.870	89.30	96.9000	4.5111	5.974
6.878	89.39	96.8986	4.5111	5.994
6.887	89.48	96.8972	4.5110	6.012
6.895	89.56	96.8958	4.5109	6.030
6.903	89.65	96.8945	4.5109	6.048
6.912	89.74	96.8932	4.5108	6.066
6.920	89.82	96.8918	4.5107	6.085
6.928	89.91	96.8905	4.5107	6.104
6.937	90.00	96.8892	4.5106	6.123
6.945	90.08	96.8879	4.5106	6.141
6.953	90.17	96.8866	4.5105	6.158
6.962	90.26	96.8854	4.5104	6.176
6.970	90.34	96.8841	4.5104	6.193
6.978	90.43	96.8828	4.5103	6.211
6.987	90.52	96.8815	4.5103	6.228
6.995	90.60	96.8802	4.5102	6.246
7.003	90.69	96.8790	4.5101	6.263
7.012	90.77	96.8777	4.5101	6.279
7.020	90.86	96.8765	4.5100	6.296
7.028	90.95	96.8753	4.5100	6.313
7.037	91.03	96.8741	4.5099	6.331
7.045	91.12	96.8729	4.5099	6.349
7.053	91.21	96.8717	4.5098	6.366
7.062	91.29	96.8706	4.5098	6.383
7.070	91.38	96.8694	4.5097	6.400
7.078	91.47	96.8683	4.5097	6.418
7.087	91.55	96.8671	4.5096	6.436
7.095	91.64	96.8660	4.5095	6.454
7.103	91.73	96.8649	4.5095	6.472
7.112	91.81	96.8638	4.5094	6.490
7.120	91.90	96.8627	4.5094	6.506
7.128	91.98	96.8616	4.5093	6.523
7.137	92.07	96.8606	4.5093	6.540
7.145	92.16	96.8595	4.5092	6.557
7.153	92.24	96.8584	4.5092	6.573
7.162	92.33	96.8574	4.5091	6.588
7.170	92.42	96.8563	4.5091	6.603
7.178	92.50	96.8553	4.5090	6.618
7.187	92.59	96.8542	4.5090	6.633
7.195	92.68	96.8532	4.5089	6.648
7.203	92.76	96.8522	4.5089	6.664
7.212	92.85	96.8512	4.5089	6.679
7.220	92.94	96.8502	4.5088	6.694
7.228	93.02	96.8492	4.5088	6.709
7.237	93.11	96.8483	4.5087	6.725
7.245	93.19	96.8473	4.5087	6.741
7.253	93.28	96.8463	4.5086	6.757
7.262	93.37	96.8454	4.5086	6.773
7.270	93.45	96.8444	4.5085	6.788
7.278	93.54	96.8435	4.5085	6.802
7.287	93.63	96.8426	4.5085	6.818
7.295	93.71	96.8417	4.5084	6.834
7.303	93.80	96.8408	4.5084	6.850
7.312	93.89	96.8399	4.5083	6.866
7.320	93.97	96.8390	4.5083	6.881
7.328	94.06	96.8382	4.5082	6.895
7.337	94.15	96.8373	4.5082	6.910
7.345	94.23	96.8364	4.5082	6.926
7.353	94.32	96.8356	4.5081	6.941
7.362	94.40	96.8347	4.5081	6.956
7.370	94.49	96.8339	4.5080	6.969
7.378	94.58	96.8331	4.5080	6.982
7.387	94.66	96.8323	4.5080	6.994
7.395	94.75	96.8315	4.5079	7.008
7.403	94.83	96.8307	4.5079	7.022
7.412	94.92	96.8299	4.5079	7.036
7.420	95.01	96.8291	4.5078	7.049
7.428	95.09	96.8284	4.5078	7.061
7.437	95.18	96.8276	4.5078	7.074
7.445	95.27	96.8268	4.5077	7.087
7.453	95.35	96.8261	4.5077	7.100
7.462	95.44	96.8253	4.5077	7.113
7.470	95.52	96.8246	4.5076	7.127
7.478	95.61	96.8238	4.5076	7.139
7.487	95.70	96.8231	4.5075	7.151
7.495	95.78	96.8224	4.5075	7.162
7.503	95.87	96.8217	4.5075	7.174
7.512	95.95	96.8210	4.5074	7.188
7.520	96.04	96.8203	4.5074	7.200
7.528	96.13	96.8196	4.5074	7.212
7.537	96.21	96.8189	4.5074	7.224
7.545	96.30	96.8182	4.5073	7.236
7.553	96.39	96.8176	4.5073	7.248
7.562	96.47	96.8169	4.5073	7.260
7.570	96.56	96.8162	4.5072	7.272
7.578	96.64	96.8155	4.5072	7.285
7.587	96.73	96.8148	4.5072	7.296
7.595	96.82	96.8142	4.5071	7.308
7.603	96.90	96.8135	4.5071	7.319
7.612	96.99	96.8129	4.5071	7.330
7.620	97.07	96.8122	4.5070	7.342
7.628	97.16	96.8116	4.5070	7.355
7.637	97.25	96.8110	4.5070	7.368
7.645	97.33	96.8104	4.5070	7.380
7.653	97.42	96.8098	4.5069	7.392
7.662	97.50	96.8092	4.5069	7.404
7.670	97.59	96.8085	4.5069	7.415
7.678	97.68	96.8079	4.5068	7.427
7.687	97.76	96.8074	4.5068	7.438
7.695	97.85	96.8068	4.5068	7.450
7.703	97.93	96.8062	4.5068	7.461
7.712	98.02	96.8056	4.5067	7.471
7.720	98.11	96.8050	4.5067	7.480
7.728	98.19	96.8044	4.5067	7.490
7.737	98.28	96.8038	4.5067	7.501
7.745	98.37	96.8033	4.5066	7.511
7.753	98.45	96.8027	4.5066	7.523
7.762	98.54	96.8021	4.5066	7.534
7.770	98.62	96.8016	4.5065	7.545
7.778	98.71	96.8010	4.5065	7.556
7.787	98.80	96.8005	4.5065	7.567
7.795	98.88	96.7999	4.5065	7.579
7.803	98.97	96.7994	4.5064	7.591
7.812	99.05	96.7988	4.5064	7.602
7.820	99.14	96.7983	4.5064	7.613
7.828	99.23	96.7978	4.5064	7.623
7.837	99.31	96.7973	4.5063	7.633
7.845	99.40	96.7968	4.5063	7.641
7.853	99.48	96.7962	4.5063	7.650
7.862	99.57	96.7957	4.5063	7.658
7.870	99.66	96.7952	4.5062	7.667
7.878	99.74	96.7948	4.5062	7.676
7.887	99.83	96.7943	4.5062	7.685
7.895	99.91	96.7939	4.5062	7.693
7.903	100.00	96.7934	4.5062	7.702
7.912	100.09	96.7930	4.5061	7.710
7.920	100.17	96.7926	4.5061	7.719
7.928	100.26	96.7921	4.5061	7.729
7.937	100.34	96.7917	4.5061	7.739
7.945	100.43	96.7912	4.5061	7.748
7.953	100.52	96.7908	4.5060	7.757
7.962	100.60	96.7903	4.5060	7.764
7.970	100.69	96.7899	4.5060	7.772
7.978	100.77	96.7895	4.5060	7.780
7.987	100.86	96.7890	4.5060	7.788
7.995	100.94	96.7886	4.5059	7.797
8.003	101.03	96.7882	4.5059	7.805
8.012	101.12	96.7878	4.5059	7.812
8.020	101.20	96.7874	4.5059	7.820
8.028	101.29	96.7870	4.5059	7.828
8.037	101.37	96.7866	4.5058	7.836
8.045	101.46	96.7862	4.5058	7.844
8.053	101.55	96.7858	4.5058	7.853
8.062	101.63	96.7854	4.5058	7.861
8.070	101.72	96.7851	4.5058	7.869
8.078	101.80	96.7847	4.5058	7.877
8.087	101.89	96.7843	4.5057	7.885
8.095	101.98	96.7839	4.5057	7.893
8.103	102.06	96.7835	4.5057	7.901
8.112	102.15	96.7831	4.5057	7.909
8.120	102.23	96.7828	4.5057	7.917
8.128	102.32	96.7824	4.5057	7.925
8.137	102.40	96.7821	4.5056	7.933
8.145	102.49	96.7817	4.5056	7.939
8.153	102.58	96.7814	4.5056	7.946
8.162	102.66	96.7810	4.5056	7.953
8.170	102.75	96.7807	4.5056	7.959
8.178	102.83	96.7803	4.5056	7.966
8.187	102.92	96.7800	4.5055	7.972
8.195	103.01	96.7796	4.5055	7.979
8.203	103.09	96.7793	4.5055	7.986
8.212	103.18	96.7789	4.5055	7.992
8.220	103.26	96.7786	4.5055	7.999
8.228	103.35	96.7782	4.5055	8.005
8.237	103.43	96.7778	4.5054	8.011
8.245	103.52	96.7775	4.5054	8.017
8.253	103.61	96.7771	4.5054	8.022
8.262	103.69	96.7767	4.5054	8.027
8.270	103.78	96.7763	4.5054	8.032
8.278	103.86	96.7760	4.5054	8.036
8.287	103.95	96.7756	4.5053	8.041
8.295	104.03	96.7753	4.5053	8.046
8.303	104.12	96.7749	4.5053	8.051
8.312	104.20	96.7746	4.5053	8.056
8.320	104.29	96.7743	4.5053	8.061
8.328	104.38	96.7740	4.5053	8.065
8.337	104.46	96.7736	4.5052	8.070
8.345	104.55	96.7733	4.5052	8.075
8.353	104.63	96.7730	4.5052	8.081
8.362	104.72	96.7727	4.5052	8.086
8.370	104.81	96.7724	4.5052	8.091
8.378	104.89	96.7721	4.5052	8.095
8.387	104.98	96.7718	4.5052	8.100
8.395	105.06	96.7715	4.5051	8.106
8.403	105.15	96.7712	4.5051	8.112
8.412	105.23	96.7709	4.5051	8.118
8.420	105.32	96.7707	4.5051	8.123
8.428	105.41	96.7704	4.5051	8.129
8.437	105.49	96.7701	4.5051	8.134
8.445	105.58	96.7698	4.5051	8.139
8.453	105.66	96.7695	4.5051	8.144
8.462	105.75	96.7693	4.5050	8.149
8.470	105.84	96.7690	4.5050	8.154
8.478	105.92	96.7687	4.5050	8.158
8.487	106.01	96.7685	4.5050	8.162
8.495	106.09	96.7682	4.5050	8.167
8.503	106.18	96.7680	4.5050	8.173
8.512	106.27	96.7677	4.5050	8.178
8.520	106.35	96.7675	4.5050	8.183
8.528	106.44	96.7673	4.5049	8.189
8.537	106.52	96.7670	4.5049	8.194

[step]
Isothermal 30.0 min
Time	Temperature	Weight	Weight	Heat Flow
min	°C	%	mg	mW
8.545	106.61	96.7668	4.5049	8.200
8.570	106.86	96.7661	4.5049	8.214
8.595	107.12	96.7653	4.5049	8.225
8.620	107.38	96.7646	4.5048	8.237
8.645	107.63	96.7639	4.5048	8.247
8.670	107.89	96.7632	4.5048	8.264
8.695	108.14	96.7624	4.5047	8.284
8.720	108.38	96.7616	4.5047	8.312
8.745	108.63	96.7609	4.5047	8.346
8.770	108.87	96.7602	4.5046	8.383
8.795	109.11	96.7595	4.5046	8.421
8.820	109.34	96.7587	4.5045	8.460
8.845	109.57	96.7579	4.5045	8.503
8.870	109.79	96.7571	4.5045	8.550
8.895	110.01	96.7564	4.5044	8.602
8.920	110.22	96.7556	4.5044	8.659
8.945	110.43	96.7548	4.5044	8.720
8.970	110.63	96.7540	4.5043	8.783
8.995	110.83	96.7533	4.5043	8.847
9.020	111.02	96.7525	4.5043	8.915
9.045	111.20	96.7517	4.5042	8.987
9.070	111.37	96.7509	4.5042	9.056
9.095	111.54	96.7500	4.5041	9.130
9.120	111.71	96.7490	4.5041	9.205
9.145	111.86	96.7481	4.5041	9.285
9.170	112.01	96.7471	4.5040	9.367
9.195	112.16	96.7460	4.5040	9.448
9.220	112.29	96.7451	4.5039	9.527
9.245	112.42	96.7441	4.5039	9.609
9.270	112.54	96.7431	4.5038	9.692
9.295	112.66	96.7422	4.5038	9.779
9.320	112.77	96.7414	4.5037	9.868
9.345	112.86	96.7405	4.5037	9.954
9.370	112.96	96.7398	4.5037	10.042
9.395	113.04	96.7389	4.5036	10.130
9.420	113.12	96.7380	4.5036	10.218
9.445	113.19	96.7369	4.5035	10.307
9.470	113.25	96.7359	4.5035	10.393
9.495	113.31	96.7348	4.5034	10.476
9.520	113.36	96.7339	4.5034	10.557
9.545	113.41	96.7329	4.5033	10.632
9.570	113.45	96.7318	4.5033	10.706
9.595	113.48	96.7308	4.5032	10.779
9.620	113.51	96.7297	4.5032	10.850
9.645	113.53	96.7286	4.5031	10.917
9.670	113.55	96.7274	4.5031	10.981
9.695	113.57	96.7263	4.5030	11.041
9.720	113.57	96.7253	4.5030	11.100
9.745	113.58	96.7243	4.5029	11.157
9.770	113.58	96.7234	4.5029	11.211
9.795	113.58	96.7225	4.5029	11.265
9.820	113.57	96.7216	4.5028	11.313
9.845	113.56	96.7206	4.5028	11.359
9.870	113.54	96.7197	4.5027	11.400
9.895	113.52	96.7186	4.5027	11.441
9.920	113.49	96.7176	4.5026	11.479
9.945	113.47	96.7164	4.5026	11.513
9.970	113.44	96.7152	4.5025	11.541
9.995	113.41	96.7140	4.5025	11.565
10.020	113.38	96.7128	4.5024	11.588
10.045	113.34	96.7117	4.5024	11.608
10.070	113.31	96.7107	4.5023	11.624
10.095	113.27	96.7097	4.5023	11.635
10.120	113.23	96.7087	4.5022	11.641
10.145	113.19	96.7078	4.5022	11.645
10.170	113.16	96.7070	4.5021	11.647
10.195	113.12	96.7062	4.5021	11.649
10.220	113.08	96.7054	4.5021	11.649
10.245	113.04	96.7047	4.5020	11.649
10.270	113.00	96.7042	4.5020	11.648
10.295	112.96	96.7036	4.5020	11.646
10.320	112.92	96.7030	4.5020	11.643
10.345	112.88	96.7023	4.5019	11.636
10.370	112.84	96.7017	4.5019	11.626
10.395	112.80	96.7012	4.5019	11.611
10.420	112.76	96.7006	4.5018	11.596
10.445	112.72	96.7001	4.5018	11.579
10.470	112.68	96.6996	4.5018	11.561
10.495	112.64	96.6991	4.5018	11.541
10.520	112.60	96.6986	4.5018	11.521
10.545	112.56	96.6982	4.5017	11.501
10.570	112.53	96.6977	4.5017	11.479
10.595	112.49	96.6973	4.5017	11.451
10.620	112.46	96.6969	4.5017	11.423
10.645	112.42	96.6965	4.5017	11.397
10.670	112.39	96.6961	4.5016	11.375
10.695	112.36	96.6957	4.5016	11.353
10.720	112.33	96.6953	4.5016	11.330
10.745	112.30	96.6950	4.5016	11.309
10.770	112.27	96.6946	4.5016	11.287
10.795	112.24	96.6943	4.5016	11.261
10.820	112.21	96.6940	4.5015	11.235
10.845	112.19	96.6937	4.5015	11.208
10.870	112.16	96.6935	4.5015	11.183
10.895	112.14	96.6933	4.5015	11.158
10.920	112.12	96.6931	4.5015	11.131
10.945	112.10	96.6928	4.5015	11.105
10.970	112.08	96.6926	4.5015	11.081
10.995	112.06	96.6923	4.5015	11.055
11.020	112.04	96.6921	4.5014	11.027
11.045	112.03	96.6919	4.5014	11.002
11.070	112.01	96.6917	4.5014	10.977
11.095	112.00	96.6914	4.5014	10.955
11.120	111.99	96.6911	4.5014	10.935
11.145	111.98	96.6909	4.5014	10.912
11.170	111.97	96.6906	4.5014	10.890
11.195	111.96	96.6904	4.5014	10.865
11.220	111.95	96.6902	4.5014	10.843
11.245	111.95	96.6900	4.5014	10.824
11.270	111.94	96.6899	4.5013	10.805
11.295	111.94	96.6898	4.5013	10.787
11.320	111.94	96.6896	4.5013	10.767
11.345	111.93	96.6894	4.5013	10.748
11.370	111.93	96.6893	4.5013	10.728
11.395	111.93	96.6891	4.5013	10.708
11.420	111.94	96.6890	4.5013	10.692
11.445	111.94	96.6889	4.5013	10.676
11.470	111.94	96.6887	4.5013	10.659
11.495	111.95	96.6886	4.5013	10.640
11.520	111.95	96.6884	4.5013	10.621
11.545	111.96	96.6882	4.5013	10.605
11.570	111.97	96.6880	4.5013	10.591
11.595	111.98	96.6878	4.5012	10.579
11.620	111.99	96.6876	4.5012	10.566
11.645	112.00	96.6874	4.5012	10.553
[...]
94.945	950.08	-3.3834	-0.1575	114.277
94.953	950.08	-3.3835	-0.1575	114.286
94.962	950.08	-3.3836	-0.1575	114.294
94.970	950.08	-3.3836	-0.1575	114.303
94.978	950.08	-3.3837	-0.1575	114.311
94.987	950.08	-3.3838	-0.1575	114.319
94.995	950.09	-3.3838	-0.1575	114.326
95.003	950.09	-3.3839	-0.1575	114.333
95.012	950.09	-3.3839	-0.1575	114.340
95.020	950.09	-3.3840	-0.1575	114.347
95.028	950.09	-3.3840	-0.1575	114.353
95.037	950.09	-3.3841	-0.1575	114.358
95.045	950.09	-3.3842	-0.1575	114.363
95.053	950.09	-3.3842	-0.1576	114.368
95.062	950.09	-3.3843	-0.1576	114.374
95.070	950.09	-3.3843	-0.1576	114.380
95.078	950.09	-3.3844	-0.1576	114.386
95.087	950.09	-3.3845	-0.1576	114.393
95.095	950.09	-3.3846	-0.1576	114.400
95.103	950.09	-3.3847	-0.1576	114.407
95.112	950.09	-3.3848	-0.1576	114.414
95.120	950.09	-3.3849	-0.1576	114.422
95.128	950.09	-3.3850	-0.1576	114.430
95.137	950.09	-3.3851	-0.1576	114.438
95.145	950.09	-3.3852	-0.1576	114.445
95.153	950.09	-3.3853	-0.1576	114.451
95.162	950.09	-3.3854	-0.1576	114.457
95.170	950.09	-3.3855	-0.1576	114.462
95.178	950.09	-3.3856	-0.1576	114.468
95.187	950.09	-3.3857	-0.1576	114.474
95.195	950.10	-3.3858	-0.1576	114.481
95.203	950.10	-3.3859	-0.1576	114.486
95.212	950.10	-3.3859	-0.1576	114.493
95.220	950.10	-3.3860	-0.1576	114.499
95.228	950.10	-3.3861	-0.1576	114.508
95.237	950.10	-3.3862	-0.1576	114.517
95.245	950.10	-3.3863	-0.1576	114.526
95.253	950.10	-3.3863	-0.1576	114.535
95.262	950.10	-3.3864	-0.1577	114.544
95.270	950.10	-3.3865	-0.1577	114.553
95.278	950.10	-3.3865	-0.1577	114.561
95.287	950.10	-3.3866	-0.1577	114.570
95.295	950.10	-3.3867	-0.1577	114.579
95.303	950.10	-3.3867	-0.1577	114.587
95.312	950.10	-3.3868	-0.1577	114.595
95.320	950.10	-3.3869	-0.1577	114.602
95.328	950.10	-3.3870	-0.1577	114.609
95.337	950.10	-3.3870	-0.1577	114.615
95.345	950.10	-3.3871	-0.1577	114.621
95.353	950.10	-3.3872	-0.1577	114.627
95.362	950.10	-3.3873	-0.1577	114.633
95.370	950.10	-3.3873	-0.1577	114.639
95.378	950.10	-3.3874	-0.1577	114.645
95.387	950.10	-3.3875	-0.1577	114.650
95.395	950.10	-3.3875	-0.1577	114.655
95.403	950.10	-3.3876	-0.1577	114.660
95.412	950.10	-3.3877	-0.1577	114.666
95.420	950.10	-3.3877	-0.1577	114.671
95.428	950.10	-3.3878	-0.1577	114.675
95.437	950.11	-3.3878	-0.1577	114.679
95.445	950.11	-3.3879	-0.1577	114.683
95.453	950.11	-3.3880	-0.1577	114.687
95.462	950.11	-3.3881	-0.1577	114.691
95.470	950.11	-3.3881	-0.1577	114.695
95.478	950.11	-3.3882	-0.1577	114.699
95.487	950.11	-3.3883	-0.1577	114.701
95.495	950.11	-3.3884	-0.1577	114.704
95.503	950.11	-3.3885	-0.1578	114.707
95.512	950.11	-3.3886	-0.1578	114.710
95.520	950.11	-3.3887	-0.1578	114.713
95.528	950.11	-3.3888	-0.1578	114.716
95.537	950.11	-3.3889	-0.1578	114.719
95.545	950.11	-3.3890	-0.1578	114.722
95.553	950.11	-3.3891	-0.1578	114.725
95.562	950.11	-3.3893	-0.1578	114.728
95.570	950.11	-3.3894	-0.1578	114.731
95.578	950.11	-3.3895	-0.1578	114.734
95.587	950.11	-3.3896	-0.1578	114.738
95.595	950.11	-3.3897	-0.1578	114.742
95.603	950.11	-3.3898	-0.1578	114.746
95.612	950.11	-3.3899	-0.1578	114.750
95.620	950.11	-3.3900	-0.1578	114.754
95.628	950.11	-3.3900	-0.1578	114.759
95.637	950.11	-3.3901	-0.1578	114.764
95.645	950.11	-3.3902	-0.1578	114.769
95.653	950.12	-3.3902	-0.1578	114.775
95.662	950.12	-3.3903	-0.1578	114.779
95.670	950.12	-3.3904	-0.1578	114.784
95.678	950.12	-3.3905	-0.1578	114.788
95.687	950.12	-3.3906	-0.1578	114.792
95.695	950.12	-3.3906	-0.1578	114.797
95.703	950.12	-3.3907	-0.1579	114.801
95.712	950.12	-3.3909	-0.1579	114.804
95.720	950.12	-3.3910	-0.1579	114.808
95.728	950.12	-3.3911	-0.1579	114.811
95.737	950.12	-3.3912	-0.1579	114.815
95.745	950.12	-3.3913	-0.1579	114.819
95.753	950.12	-3.3914	-0.1579	114.823
95.762	950.12	-3.3915	-0.1579	114.827
95.770	950.12	-3.3916	-0.1579	114.831
95.778	950.12	-3.3917	-0.1579	114.836
95.787	950.12	-3.3918	-0.1579	114.840
95.795	950.12	-3.3919	-0.1579	114.845
95.803	950.12	-3.3919	-0.1579	114.849
95.812	950.12	-3.3920	-0.1579	114.854
95.820	950.12	-3.3920	-0.1579	114.858
95.828	950.12	-3.3921	-0.1579	114.863
95.837	950.12	-3.3922	-0.1579	114.868
95.845	950.12	-3.3922	-0.1579	114.873
95.853	950.12	-3.3923	-0.1579	114.879
95.862	950.12	-3.3924	-0.1579	114.884
95.870	950.12	-3.3925	-0.1579	114.890
95.878	950.12	-3.3926	-0.1579	114.895
95.887	950.12	-3.3926	-0.1579	114.900
95.895	950.13	-3.3927	-0.1579	114.905
95.903	950.13	-3.3928	-0.1579	114.910
95.912	950.13	-3.3928	-0.1580	114.915
95.920	950.13	-3.3929	-0.1580	114.919
95.928	950.13	-3.3930	-0.1580	114.923
95.937	950.13	-3.3930	-0.1580	114.927
95.945	950.13	-3.3931	-0.1580	114.930
95.953	950.13	-3.3932	-0.1580	114.933
95.962	950.13	-3.3932	-0.1580	114.937
95.970	950.13	-3.3933	-0.1580	114.941
95.978	950.13	-3.3934	-0.1580	114.944
95.987	950.13	-3.3935	-0.1580	114.948
95.995	950.13	-3.3936	-0.1580	114.952
96.003	950.13	-3.3936	-0.1580	114.956
96.012	950.13	-3.3937	-0.1580	114.960
96.020	950.13	-3.3938	-0.1580	114.964
96.028	950.13	-3.3939	-0.1580	114.968
96.037	950.13	-3.3940	-0.1580	114.971
96.045	950.13	-3.3941	-0.1580	114.975
96.053	950.13	-3.3941	-0.1580	114.978
96.062	950.13	-3.3942	-0.1580	114.982
96.070	950.13	-3.3943	-0.1580	114.985
96.078	950.13	-3.3943	-0.1580	114.988
96.087	950.13	-3.3944	-0.1580	114.991
96.095	950.13	-3.3945	-0.1580	114.995
96.103	950.13	-3.3945	-0.1580	114.998
96.112	950.13	-3.3946	-0.1580	115.002
96.120	950.13	-3.3947	-0.1580	115.006
96.128	950.13	-3.3947	-0.1580	115.011
96.137	950.13	-3.3948	-0.1580	115.016
96.145	950.13	-3.3949	-0.1580	115.022
96.153	950.13	-3.3950	-0.1581	115.027
96.162	950.13	-3.3951	-0.1581	115.032
96.170	950.13	-3.3952	-0.1581	115.037
96.178	950.13	-3.3953	-0.1581	115.042
96.187	950.13	-3.3954	-0.1581	115.047
96.195	950.13	-3.3955	-0.1581	115.052
96.203	950.14	-3.3955	-0.1581	115.057
96.212	950.14	-3.3956	-0.1581	115.060
96.220	950.14	-3.3957	-0.1581	115.063
96.228	950.14	-3.3958	-0.1581	115.067
96.237	950.14	-3.3958	-0.1581	115.070
96.245	950.14	-3.3959	-0.1581	115.073
96.253	950.14	-3.3960	-0.1581	115.076
96.262	950.14	-3.3960	-0.1581	115.079
96.270	950.14	-3.3961	-0.1581	115.082
96.278	950.14	-3.3962	-0.1581	115.086
96.287	950.14	-3.3962	-0.1581	115.089
96.295	950.14	-3.3963	-0.1581	115.092
96.303	950.14	-3.3964	-0.1581	115.095
96.312	950.14	-3.3965	-0.1581	115.099
96.320	950.14	-3.3966	-0.1581	115.102
96.328	950.14	-3.3967	-0.1581	115.105
96.337	950.14	-3.3968	-0.1581	115.109
96.345	950.14	-3.3968	-0.1581	115.112
96.353	950.14	-3.3969	-0.1581	115.115
96.362	950.14	-3.3970	-0.1581	115.118
96.370	950.14	-3.3971	-0.1582	115.122
96.378	950.14	-3.3972	-0.1582	115.125
96.387	950.14	-3.3973	-0.1582	115.129
96.395	950.14	-3.3974	-0.1582	115.133
96.403	950.14	-3.3974	-0.1582	115.137
96.412	950.14	-3.3975	-0.1582	115.141
96.420	950.14	-3.3976	-0.1582	115.145
96.428	950.14	-3.3977	-0.1582	115.149
96.437	950.14	-3.3978	-0.1582	115.153
96.445	950.14	-3.3978	-0.1582	115.157
96.453	950.14	-3.3979	-0.1582	115.160
96.462	950.14	-3.3979	-0.1582	115.163
96.470	950.14	-3.3980	-0.1582	115.166
96.478	950.14	-3.3981	-0.1582	115.169
96.487	950.14	-3.3981	-0.1582	115.171
96.495	950.14	-3.3982	-0.1582	115.174
96.503	950.14	-3.3982	-0.1582	115.177
96.512	950.14	-3.3983	-0.1582	115.180
96.520	950.14	-3.3984	-0.1582	115.182
96.528	950.14	-3.3985	-0.1582	115.185
96.537	950.14	-3.3986	-0.1582	115.187
96.545	950.14	-3.3987	-0.1582	115.190
96.553	950.14	-3.3988	-0.1582	115.193
96.562	950.14	-3.3989	-0.1582	115.196
96.570	950.15	-3.3989	-0.1582	115.199
96.578	950.15	-3.3990	-0.1582	115.202
96.587	950.15	-3.3991	-0.1582	115.206
96.595	950.15	-3.3992	-0.1582	115.209
96.603	950.15	-3.3993	-0.1583	115.212
96.612	950.15	-3.3994	-0.1583	115.215
96.620	950.15	-3.3994	-0.1583	115.218
96.628	950.15	-3.3995	-0.1583	115.221
96.637	950.15	-3.3996	-0.1583	115.224
96.645	950.15	-3.3996	-0.1583	115.226
96.653	950.15	-3.3997	-0.1583	115.229
96.662	950.15	-3.3998	-0.1583	115.231
96.670	950.15	-3.3998	-0.1583	115.234
96.678	950.15	-3.3999	-0.1583	115.237
96.687	950.15	-3.3999	-0.1583	115.240
96.695	950.15	-3.4000	-0.1583	115.243
96.703	950.15	-3.4000	-0.1583	115.246
96.712	950.15	-3.4001	-0.1583	115.248
96.720	950.15	-3.4001	-0.1583	115.251
96.728	950.15	-3.4002	-0.1583	115.255
96.737	950.15	-3.4003	-0.1583	115.258
96.745	950.15	-3.4003	-0.1583	115.260
96.753	950.15	-3.4004	-0.1583	115.263
96.762	950.15	-3.4005	-0.1583	115.265
96.770	950.15	-3.4006	-0.1583	115.267
96.778	950.15	-3.4007	-0.1583	115.269
96.787	950.15	-3.4008	-0.1583	115.271
96.795	950.15	-3.4009	-0.1583	115.274
96.803	950.15	-3.4010	-0.1583	115.276
96.812	950.15	-3.4010	-0.1583	115.278
96.820	950.15	-3.4011	-0.1583	115.280
96.828	950.15	-3.4012	-0.1583	115.282
96.837	950.15	-3.4013	-0.1583	115.285
96.845	950.15	-3.4014	-0.1584	115.287
96.853	950.15	-3.4015	-0.1584	115.289
96.862	950.15	-3.4016	-0.1584	115.292
96.870	950.15	-3.4017	-0.1584	115.294
96.878	950.15	-3.4017	-0.1584	115.296
96.887	950.15	-3.4018	-0.1584	115.298
96.895	950.15	-3.4019	-0.1584	115.300
96.903	950.15	-3.4020	-0.1584	115.303
96.912	950.15	-3.4020	-0.1584	115.305
96.920	950.15	-3.4021	-0.1584	115.307
96.928	950.15	-3.4022	-0.1584	115.309
96.937	950.15	-3.4023	-0.1584	115.311
96.945	950.15	-3.4023	-0.1584	115.313
96.953	950.15	-3.4024	-0.1584	115.315
96.962	950.15	-3.4025	-0.1584	115.317
96.970	950.15	-3.4026	-0.1584	115.319
96.978	950.15	-3.4027	-0.1584	115.321
96.987	950.15	-3.4028	-0.1584	115.324
96.995	950.15	-3.4029	-0.1584	115.327
97.003	950.15	-3.4029	-0.1584	115.329
97.012	950.15	-3.4030	-0.1584	115.331
97.020	950.15	-3.4031	-0.1584	115.334
97.028	950.15	-3.4032	-0.1584	115.336
97.037	950.15	-3.4033	-0.1584	115.339
97.045	950.15	-3.4034	-0.1584	115.342
97.053	950.15	-3.4035	-0.1584	115.345
97.062	950.16	-3.4036	-0.1585	115.349
97.070	950.16	-3.4037	-0.1585	115.351
97.078	950.16	-3.4038	-0.1585	115.353
97.087	950.16	-3.4039	-0.1585	115.356
97.095	950.16	-3.4040	-0.1585	115.359
97.103	950.16	-3.4041	-0.1585	115.362
97.112	950.16	-3.4042	-0.1585	115.366
97.120	950.16	-3.4042	-0.1585	115.369
97.128	950.16	-3.4043	-0.1585	115.372
97.137	950.16	-3.4044	-0.1585	115.374
97.145	950.16	-3.4044	-0.1585	115.377
97.153	950.16	-3.4045	-0.1585	115.380
97.162	950.16	-3.4046	-0.1585	115.383
97.170	950.16	-3.4047	-0.1585	115.386
97.178	950.16	-3.4047	-0.1585	115.388
97.187	950.16	-3.4048	-0.1585	115.390
97.195	950.16	-3.4049	-0.1585	115.392
97.203	950.16	-3.4050	-0.1585	115.394
97.212	950.16	-3.4051	-0.1585	115.396
97.220	950.16	-3.4052	-0.1585	115.399
97.228	950.16	-3.4053	-0.1585	115.401
97.237	950.16	-3.4054	-0.1585	115.403
97.245	950.16	-3.4054	-0.1585	115.405
97.253	950.16	-3.4055	-0.1585	115.407
97.262	950.16	-3.4056	-0.1585	115.409
97.270	950.16	-3.4056	-0.1585	115.411
97.278	950.16	-3.4057	-0.1586	115.413
97.287	950.16	-3.4058	-0.1586	115.414
97.295	950.16	-3.4059	-0.1586	115.416
97.303	950.16	-3.4060	-0.1586	115.418
97.312	950.16	-3.4061	-0.1586	115.420
97.320	950.16	-3.4062	-0.1586	115.422
97.328	950.16	-3.4063	-0.1586	115.424
97.337	950.16	-3.4064	-0.1586	115.425
97.345	950.16	-3.4065	-0.1586	115.427
97.353	950.16	-3.4066	-0.1586	115.429
97.362	950.16	-3.4067	-0.1586	115.431
97.370	950.16	-3.4068	-0.1586	115.433
97.378	950.16	-3.4069	-0.1586	115.434
97.387	950.16	-3.4070	-0.1586	115.435
97.395	950.16	-3.4071	-0.1586	115.437
97.403	950.16	-3.4072	-0.1586	115.438
97.412	950.16	-3.4073	-0.1586	115.439
97.420	950.16	-3.4074	-0.1586	115.440
97.428	950.16	-3.4075	-0.1586	115.441
97.437	950.16	-3.4076	-0.1586	115.443
97.445	950.16	-3.4077	-0.1586	115.445
97.453	950.16	-3.4078	-0.1587	115.446
97.462	950.16	-3.4079	-0.1587	115.448
97.470	950.16	-3.4080	-0.1587	115.450
97.478	950.16	-3.4081	-0.1587	115.453
97.487	950.16	-3.4081	-0.1587	115.456
97.495	950.16	-3.4082	-0.1587	115.459
97.503	950.16	-3.4082	-0.1587	115.462
97.512	950.16	-3.4083	-0.1587	115.465
97.520	950.16	-3.4083	-0.1587	115.467
97.528	950.16	-3.4083	-0.1587	115.470
97.537	950.16	-3.4084	-0.1587	115.473
97.545	950.16	-3.4084	-0.1587	115.476
97.553	950.16	-3.4084	-0.1587	115.478
97.562	950.16	-3.4085	-0.1587	115.481
97.570	950.16	-3.4085	-0.1587	115.483
97.578	950.16	-3.4086	-0.1587	115.484
97.587	950.17	-3.4086	-0.1587	115.486
97.595	950.17	-3.4086	-0.1587	115.488
97.603	950.17	-3.4087	-0.1587	115.490
97.612	950.17	-3.4088	-0.1587	115.492
97.620	950.17	-3.4088	-0.1587	115.494
97.628	950.17	-3.4089	-0.1587	115.496
97.637	950.17	-3.4089	-0.1587	115.498
97.645	950.17	-3.4090	-0.1587	115.501
97.653	950.17	-3.4091	-0.1587	115.503
97.662	950.17	-3.4092	-0.1587	115.505
97.670	950.17	-3.4093	-0.1587	115.508
97.678	950.17	-3.4093	-0.1587	115.510
97.687	950.17	-3.4094	-0.1587	115.512
97.695	950.17	-3.4095	-0.1587	115.514
97.703	950.17	-3.4095	-0.1587	115.515
97.712	950.17	-3.4096	-0.1587	115.517
97.720	950.17	-3.4097	-0.1587	115.518
97.728	950.17	-3.4097	-0.1587	115.519
97.737	950.17	-3.4097	-0.1587	115.520
97.745	950.17	-3.4098	-0.1587	115.521
97.753	950.17	-3.4098	-0.1587	115.521
97.762	950.17	-3.4098	-0.1587	115.522
97.770	950.17	-3.4099	-0.1587	115.523
97.778	950.17	-3.4099	-0.1587	115.524
97.787	950.17	-3.4099	-0.1587	115.525
97.795	950.17	-3.4100	-0.1588	115.526
97.803	950.17	-3.4101	-0.1588	115.527
97.812	950.17	-3.4101	-0.1588	115.529
97.820	950.17	-3.4102	-0.1588	115.530
97.828	950.17	-3.4103	-0.1588	115.531
97.837	950.17	-3.4104	-0.1588	115.532
97.845	950.17	-3.4105	-0.1588	115.533
97.853	950.17	-3.4106	-0.1588	115.535
97.862	950.17	-3.4107	-0.1588	115.536
97.870	950.17	-3.4108	-0.1588	115.538
97.878	950.17	-3.4109	-0.1588	115.539
97.887	950.17	-3.4110	-0.1588	115.541
97.895	950.17	-3.4110	-0.1588	115.543
97.903	950.17	-3.4111	-0.1588	115.544
97.912	950.17	-3.4112	-0.1588	115.546
97.920	950.17	-3.4113	-0.1588	115.548
97.928	950.17	-3.4114	-0.1588	115.550
97.937	950.17	-3.4114	-0.1588	115.552
97.945	950.17	-3.4115	-0.1588	115.553
97.953	950.17	-3.4116	-0.1588	115.555
97.962	950.17	-3.4116	-0.1588	115.556
97.970	950.17	-3.4117	-0.1588	115.558
97.978	950.17	-3.4118	-0.1588	115.559
97.987	950.17	-3.4119	-0.1588	115.560
97.995	950.17	-3.4119	-0.1588	115.561
98.003	950.17	-3.4120	-0.1588	115.563
98.012	950.17	-3.4121	-0.1589	115.565
98.020	950.17	-3.4123	-0.1589	115.567
98.028	950.17	-3.4124	-0.1589	115.568
98.037	950.17	-3.4125	-0.1589	115.570
98.045	950.17	-3.4126	-0.1589	115.572
98.053	950.17	-3.4127	-0.1589	115.574
98.062	950.17	-3.4128	-0.1589	115.575
98.070	950.17	-3.4129	-0.1589	115.577
98.078	950.17	-3.4130	-0.1589	115.578
98.087	950.17	-3.4131	-0.1589	115.579
98.095	950.17	-3.4132	-0.1589	115.580
98.103	950.17	-3.4133	-0.1589	115.581
98.112	950.17	-3.4135	-0.1589	115.582
98.120	950.17	-3.4136	-0.1589	115.584
98.128	950.17	-3.4137	-0.1589	115.585
98.137	950.17	-3.4138	-0.1589	115.586
98.145	950.17	-3.4139	-0.1589	115.587
98.153	950.17	-3.4140	-0.1589	115.589
98.162	950.17	-3.4141	-0.1589	115.590
98.170	950.17	-3.4142	-0.1589	115.591
98.178	950.17	-3.4143	-0.1589	115.593
98.187	950.17	-3.4144	-0.1590	115.594
98.195	950.17	-3.4145	-0.1590	115.596
98.203	950.17	-3.4145	-0.1590	115.597
98.212	950.17	-3.4146	-0.1590	115.598
98.220	950.17	-3.4147	-0.1590	115.599
98.228	950.17	-3.4147	-0.1590	115.600
98.237	950.17	-3.4148	-0.1590	115.602
98.245	950.17	-3.4148	-0.1590	115.603
98.253	950.17	-3.4149	-0.1590	115.604
98.262	950.17	-3.4149	-0.1590	115.605
98.270	950.17	-3.4150	-0.1590	115.607
98.278	950.17	-3.4150	-0.1590	115.608
98.287	950.17	-3.4151	-0.1590	115.609
98.295	950.17	-3.4151	-0.1590	115.610
98.303	950.17	-3.4152	-0.1590	115.611
98.312	950.17	-3.4153	-0.1590	115.612
98.320	950.17	-3.4153	-0.1590	115.613
98.328	950.17	-3.4154	-0.1590	115.613
98.337	950.17	-3.4155	-0.1590	115.614
98.345	950.17	-3.4156	-0.1590	115.615
98.353	950.17	-3.4157	-0.1590	115.615
98.362	950.17	-3.4157	-0.1590	115.616
98.370	950.17	-3.4158	-0.1590	115.616
98.378	950.18	-3.4159	-0.1590	115.617
98.387	950.18	-3.4160	-0.1590	115.617
98.395	950.18	-3.4161	-0.1590	115.617
98.403	950.18	-3.4162	-0.1590	115.618
98.412	950.18	-3.4163	-0.1590	115.618
98.420	950.18	-3.4163	-0.1590	115.618
98.428	950.18	-3.4164	-0.1590	115.618
98.437	950.18	-3.4165	-0.1591	115.619
98.445	950.18	-3.4166	-0.1591	115.619
98.453	950.18	-3.4167	-0.1591	115.619
98.462	950.18	-3.4168	-0.1591	115.619
98.470	950.18	-3.4169	-0.1591	115.620
98.478	950.18	-3.4169	-0.1591	115.620
98.487	950.18	-3.4170	-0.1591	115.621
98.495	950.18	-3.4171	-0.1591	115.621
98.503	950.18	-3.4172	-0.1591	115.622
98.512	950.18	-3.4173	-0.1591	115.623
98.520	950.18	-3.4173	-0.1591	115.624
98.528	950.18	-3.4174	-0.1591	115.625
98.537	950.18	-3.4175	-0.1591	115.626
98.545	950.18	-3.4176	-0.1591	115.628
98.553	950.18	-3.4177	-0.1591	115.629
98.562	950.18	-3.4177	-0.1591	115.630
98.570	950.18	-3.4178	-0.1591	115.632
98.578	950.18	-3.4179	-0.1591	115.633
98.587	950.18	-3.4180	-0.1591	115.634
98.595	950.18	-3.4180	-0.1591	115.635
98.603	950.18	-3.4181	-0.1591	115.636
98.612	950.18	-3.4182	-0.1591	115.637
98.620	950.18	-3.4183	-0.1591	115.638
98.628	950.18	-3.4183	-0.1591	115.639
98.637	950.18	-3.4184	-0.1591	115.640
98.645	950.18	-3.4185	-0.1591	115.641
98.653	950.18	-3.4185	-0.1591	115.641
98.662	950.18	-3.4186	-0.1592	115.642
98.670	950.18	-3.4187	-0.1592	115.643
98.678	950.18	-3.4188	-0.1592	115.643
98.687	950.18	-3.4189	-0.1592	115.644
98.695	950.18	-3.4189	-0.1592	115.645
98.703	950.18	-3.4190	-0.1592	115.646
98.712	950.18	-3.4191	-0.1592	115.647
98.720	950.18	-3.4191	-0.1592	115.648
98.728	950.18	-3.4192	-0.1592	115.649
98.737	950.18	-3.4192	-0.1592	115.650
98.745	950.18	-3.4193	-0.1592	115.651
98.753	950.18	-3.4193	-0.1592	115.653
98.762	950.18	-3.4194	-0.1592	115.654
98.770	950.18	-3.4195	-0.1592	115.655
98.778	950.18	-3.4195	-0.1592	115.655
98.787	950.18	-3.4196	-0.1592	115.656
98.795	950.18	-3.4197	-0.1592	115.657
98.803	950.18	-3.4198	-0.1592	115.658
98.812	950.18	-3.4199	-0.1592	115.658
98.820	950.18	-3.4200	-0.1592	115.659
98.828	950.18	-3.4201	-0.1592	115.659
98.837	950.18	-3.4202	-0.1592	115.660
98.845	950.18	-3.4203	-0.1592	115.660
98.853	950.18	-3.4204	-0.1592	115.661
98.862	950.18	-3.4205	-0.1592	115.662
98.870	950.18	-3.4206	-0.1592	115.663
98.878	950.18	-3.4207	-0.1592	115.665
98.887	950.18	-3.4208	-0.1593	115.667
98.895	950.18	-3.4209	-0.1593	115.669
98.903	950.18	-3.4210	-0.1593	115.671
98.912	950.18	-3.4211	-0.1593	115.673
98.920	950.18	-3.4213	-0.1593	115.675
98.928	950.18	-3.4214	-0.1593	115.677
98.937	950.18	-3.4215	-0.1593	115.679
98.945	950.18	-3.4216	-0.1593	115.680
98.953	950.18	-3.4217	-0.1593	115.682
98.962	950.18	-3.4218	-0.1593	115.683
98.970	950.18	-3.4219	-0.1593	115.684
98.978	950.18	-3.4220	-0.1593	115.685
98.987	950.18	-3.4221	-0.1593	115.686
98.995	950.18	-3.4222	-0.1593	115.687
99.003	950.18	-3.4223	-0.1593	115.688
99.012	950.18	-3.4224	-0.1593	115.690
99.020	950.18	-3.4225	-0.1593	115.691
99.028	950.18	-3.4226	-0.1593	115.692
99.037	950.18	-3.4227	-0.1593	115.694
99.045	950.18	-3.4228	-0.1593	115.695
99.053	950.18	-3.4229	-0.1594	115.697
99.062	950.18	-3.4230	-0.1594	115.699
99.070	950.18	-3.4231	-0.1594	115.701
99.078	950.18	-3.4232	-0.1594	115.703
99.087	950.18	-3.4233	-0.1594	115.705
99.095	950.18	-3.4235	-0.1594	115.707
99.103	950.18	-3.4236	-0.1594	115.709
99.112	950.18	-3.4237	-0.1594	115.711
99.120	950.18	-3.4238	-0.1594	115.713
99.128	950.18	-3.4239	-0.1594	115.714
99.137	950.18	-3.4240	-0.1594	115.716
99.145	950.18	-3.4241	-0.1594	115.717
99.153	950.18	-3.4242	-0.1594	115.718
99.162	950.18	-3.4243	-0.1594	115.719
99.170	950.18	-3.4244	-0.1594	115.720
99.178	950.18	-3.4245	-0.1594	115.721
99.187	950.18	-3.4246	-0.1594	115.722
99.195	950.18	-3.4247	-0.1594	115.723
99.203	950.18	-3.4248	-0.1594	115.724
99.212	950.18	-3.4249	-0.1594	115.725
99.220	950.18	-3.4250	-0.1594	115.726
99.228	950.18	-3.4251	-0.1595	115.727
99.237	950.18	-3.4251	-0.1595	115.728
99.245	950.18	-3.4252	-0.1595	115.728
99.253	950.18	-3.4253	-0.1595	115.729
99.262	950.18	-3.4254	-0.1595	115.729
99.270	950.18	-3.4255	-0.1595	115.730
99.278	950.18	-3.4256	-0.1595	115.730
99.287	950.18	-3.4257	-0.1595	115.731
99.295	950.18	-3.4258	-0.1595	115.731
99.303		-3.4259	-0.1595
99.312		-3.4259	-0.1595
99.320		-3.4260	-0.1595
99.328		-3.4261	-0.1595
99.337		-3.4262	-0.1595