File: PSO Kinetics/data/softwood-20Kmin_2.txt
Filename	softwood-20Kmin_2
Instrument name	0650-0369 (192.168.1.2)
Operator	ca527
rundate	1/9/2023
Sample name	softwood-20Kmin_2
proceduresegments	Select Gas: Gas 1 ; Ramp 10.00 °C/min to 110.00 °C; Isothermal 30.0 min; Ramp 20.00 °C/min to 900.00 °C; Isothermal 30.0 min; Select Gas: Gas 2 ; Ramp 10.00 °C/min to 950.00 °C; Isothermal 10.0 min; Data Off ; Equilibrate 30.00 °C
[step]
Ramp 10.00 °C/min to 110.00 °C
Time	Temperature	Weight	Weight	Heat Flow
min	°C	%	mg	mW
0.003		100.0133	4.0831
0.012		100.0386	4.0842
0.020		100.0744	4.0856
0.028		100.1173	4.0874
0.037		100.1653	4.0893
0.045	22.01	100.2144	4.0913	-28.493
0.053	22.05	100.2599	4.0932	-28.439
0.062	22.09	100.2997	4.0948	-28.394
0.070	22.13	100.3330	4.0962	-28.350
0.078	22.17	100.3574	4.0972	-28.309
0.087	22.21	100.3732	4.0978	-28.268
0.095	22.24	100.3845	4.0983	-28.228
0.103	22.28	100.3928	4.0986	-28.188
0.112	22.32	100.3993	4.0989	-28.149
0.120	22.36	100.4045	4.0991	-28.110
0.128	22.40	100.4090	4.0993	-28.072
0.137	22.44	100.4129	4.0995	-28.035
0.145	22.48	100.4166	4.0996	-27.998
0.153	22.52	100.4201	4.0997	-27.963
0.162	22.56	100.4233	4.0999	-27.928
0.170	22.60	100.4264	4.1000	-27.892
0.178	22.63	100.4293	4.1001	-27.857
0.187	22.67	100.4319	4.1002	-27.822
0.195	22.71	100.4345	4.1003	-27.788
0.203	22.75	100.4369	4.1004	-27.755
0.212	22.78	100.4391	4.1005	-27.722
0.220	22.82	100.4411	4.1006	-27.689
0.228	22.86	100.4431	4.1007	-27.655
0.237	22.89	100.4448	4.1008	-27.622
0.245	22.93	100.4465	4.1008	-27.590
0.253	22.97	100.4479	4.1009	-27.558
0.262	23.00	100.4492	4.1009	-27.525
0.270	23.04	100.4504	4.1010	-27.493
0.278	23.08	100.4514	4.1010	-27.461
0.287	23.11	100.4523	4.1011	-27.430
0.295	23.15	100.4530	4.1011	-27.397
0.303	23.19	100.4536	4.1011	-27.366
0.312	23.22	100.4539	4.1011	-27.334
0.320	23.26	100.4542	4.1011	-27.303
0.328	23.29	100.4542	4.1011	-27.272
0.337	23.33	100.4542	4.1011	-27.242
0.345	23.36	100.4540	4.1011	-27.213
0.353	23.40	100.4536	4.1011	-27.183
0.362	23.44	100.4532	4.1011	-27.155
0.370	23.47	100.4526	4.1011	-27.125
0.378	23.51	100.4518	4.1010	-27.098
0.387	23.54	100.4510	4.1010	-27.070
0.395	23.58	100.4501	4.1010	-27.042
0.403	23.61	100.4491	4.1009	-27.014
0.412	23.65	100.4479	4.1009	-26.986
0.420	23.68	100.4466	4.1008	-26.957
0.428	23.72	100.4452	4.1008	-26.929
0.437	23.76	100.4437	4.1007	-26.901
0.445	23.79	100.4421	4.1006	-26.873
0.453	23.83	100.4404	4.1006	-26.847
0.462	23.86	100.4385	4.1005	-26.819
0.470	23.90	100.4366	4.1004	-26.793
0.478	23.94	100.4345	4.1003	-26.769
0.487	23.97	100.4324	4.1002	-26.745
0.495	24.01	100.4301	4.1002	-26.721
0.503	24.05	100.4277	4.1001	-26.697
0.512	24.08	100.4252	4.1000	-26.675
0.520	24.12	100.4226	4.0998	-26.654
0.528	24.16	100.4199	4.0997	-26.633
0.537	24.20	100.4170	4.0996	-26.611
0.545	24.24	100.4140	4.0995	-26.590
0.553	24.28	100.4109	4.0994	-26.569
0.562	24.31	100.4077	4.0992	-26.546
0.570	24.35	100.4044	4.0991	-26.524
0.578	24.39	100.4010	4.0990	-26.504
0.587	24.43	100.3975	4.0988	-26.484
0.595	24.48	100.3939	4.0987	-26.464
0.603	24.52	100.3903	4.0985	-26.444
0.612	24.56	100.3866	4.0984	-26.425
0.620	24.60	100.3828	4.0982	-26.407
0.628	24.64	100.3790	4.0981	-26.390
0.637	24.68	100.3751	4.0979	-26.374
0.645	24.72	100.3712	4.0977	-26.358
0.653	24.77	100.3672	4.0976	-26.343
0.662	24.81	100.3631	4.0974	-26.329
0.670	24.85	100.3590	4.0973	-26.315
0.678	24.90	100.3549	4.0971	-26.301
0.687	24.94	100.3506	4.0969	-26.287
0.695	24.99	100.3464	4.0967	-26.274
0.703	25.03	100.3422	4.0966	-26.262
0.712	25.07	100.3379	4.0964	-26.249
0.720	25.12	100.3336	4.0962	-26.236
0.728	25.17	100.3294	4.0960	-26.223
0.737	25.21	100.3251	4.0959	-26.211
0.745	25.26	100.3209	4.0957	-26.198
0.753	25.31	100.3167	4.0955	-26.186
0.762	25.35	100.3124	4.0953	-26.175
0.770	25.40	100.3083	4.0952	-26.163
0.778	25.45	100.3041	4.0950	-26.151
0.787	25.50	100.2999	4.0948	-26.139
0.795	25.55	100.2958	4.0947	-26.128
0.803	25.60	100.2917	4.0945	-26.117
0.812	25.65	100.2876	4.0943	-26.107
0.820	25.70	100.2836	4.0942	-26.097
0.828	25.75	100.2796	4.0940	-26.087
0.837	25.80	100.2756	4.0938	-26.076
0.845	25.85	100.2717	4.0937	-26.066
0.853	25.90	100.2678	4.0935	-26.056
0.862	25.95	100.2640	4.0934	-26.045
0.870	26.01	100.2602	4.0932	-26.034
0.878	26.06	100.2565	4.0931	-26.024
0.887	26.11	100.2529	4.0929	-26.013
0.895	26.17	100.2493	4.0928	-26.002
0.903	26.22	100.2457	4.0926	-25.991
0.912	26.28	100.2422	4.0925	-25.979
0.920	26.33	100.2388	4.0923	-25.968
0.928	26.39	100.2354	4.0922	-25.955
0.937	26.45	100.2320	4.0921	-25.944
0.945	26.50	100.2287	4.0919	-25.931
0.953	26.56	100.2254	4.0918	-25.918
0.962	26.62	100.2223	4.0917	-25.904
0.970	26.67	100.2192	4.0915	-25.889
0.978	26.73	100.2161	4.0914	-25.874
0.987	26.79	100.2131	4.0913	-25.857
0.995	26.85	100.2102	4.0912	-25.839
1.003	26.91	100.2073	4.0911	-25.822
1.012	26.97	100.2045	4.0909	-25.805
1.020	27.03	100.2018	4.0908	-25.786
1.028	27.09	100.1991	4.0907	-25.767
1.037	27.16	100.1965	4.0906	-25.748
1.045	27.22	100.1940	4.0905	-25.729
1.053	27.28	100.1914	4.0904	-25.710
1.062	27.34	100.1889	4.0903	-25.691
1.070	27.41	100.1865	4.0902	-25.672
1.078	27.47	100.1841	4.0901	-25.651
1.087	27.53	100.1817	4.0900	-25.629
1.095	27.60	100.1794	4.0899	-25.607
1.103	27.66	100.1771	4.0898	-25.584
1.112	27.73	100.1748	4.0897	-25.560
1.120	27.79	100.1726	4.0896	-25.535
1.128	27.86	100.1704	4.0895	-25.510
1.137	27.93	100.1682	4.0895	-25.484
1.145	27.99	100.1660	4.0894	-25.457
1.153	28.06	100.1639	4.0893	-25.427
1.162	28.13	100.1617	4.0892	-25.398
1.170	28.20	100.1596	4.0891	-25.369
1.178	28.27	100.1575	4.0890	-25.338
1.187	28.34	100.1554	4.0889	-25.307
1.195	28.41	100.1532	4.0889	-25.277
1.203	28.48	100.1512	4.0888	-25.246
1.212	28.55	100.1491	4.0887	-25.213
1.220	28.62	100.1470	4.0886	-25.179
1.228	28.69	100.1450	4.0885	-25.145
1.237	28.76	100.1430	4.0884	-25.112
1.245	28.83	100.1409	4.0883	-25.077
1.253	28.90	100.1389	4.0883	-25.041
1.262	28.98	100.1369	4.0882	-25.004
1.270	29.05	100.1349	4.0881	-24.969
1.278	29.12	100.1329	4.0880	-24.931
1.287	29.20	100.1309	4.0879	-24.892
1.295	29.27	100.1288	4.0879	-24.854
1.303	29.35	100.1267	4.0878	-24.815
1.312	29.42	100.1247	4.0877	-24.774
1.320	29.50	100.1226	4.0876	-24.733
1.328	29.57	100.1204	4.0875	-24.691
1.337	29.65	100.1183	4.0874	-24.649
1.345	29.73	100.1161	4.0873	-24.605
1.353	29.80	100.1139	4.0872	-24.562
1.362	29.88	100.1117	4.0872	-24.518
1.370	29.96	100.1095	4.0871	-24.472
1.378	30.03	100.1073	4.0870	-24.426
1.387	30.11	100.1051	4.0869	-24.380
1.395	30.19	100.1028	4.0868	-24.335
1.403	30.27	100.1005	4.0867	-24.288
1.412	30.35	100.0982	4.0866	-24.241
1.420	30.43	100.0959	4.0865	-24.193
1.428	30.51	100.0935	4.0864	-24.145
1.437	30.59	100.0911	4.0863	-24.095
1.445	30.67	100.0888	4.0862	-24.046
1.453	30.75	100.0864	4.0861	-23.997
1.462	30.83	100.0840	4.0860	-23.947
1.470	30.91	100.0816	4.0859	-23.896
1.478	30.99	100.0792	4.0858	-23.844
1.487	31.08	100.0767	4.0857	-23.793
1.495	31.16	100.0742	4.0856	-23.741
1.503	31.24	100.0716	4.0855	-23.688
1.512	31.32	100.0690	4.0854	-23.635
1.520	31.41	100.0664	4.0853	-23.581
1.528	31.49	100.0637	4.0852	-23.527
1.537	31.57	100.0610	4.0851	-23.473
1.545	31.66	100.0583	4.0850	-23.418
1.553	31.74	100.0555	4.0849	-23.363
1.562	31.82	100.0528	4.0847	-23.309
1.570	31.91	100.0500	4.0846	-23.253
1.578	31.99	100.0472	4.0845	-23.197
1.587	32.08	100.0444	4.0844	-23.141
1.595	32.16	100.0416	4.0843	-23.084
1.603	32.25	100.0388	4.0842	-23.026
1.612	32.33	100.0359	4.0841	-22.968
1.620	32.42	100.0330	4.0839	-22.909
1.628	32.51	100.0302	4.0838	-22.849
1.637	32.59	100.0272	4.0837	-22.790
1.645	32.68	100.0243	4.0836	-22.729
1.653	32.76	100.0214	4.0835	-22.669
1.662	32.85	100.0184	4.0833	-22.608
1.670	32.94	100.0154	4.0832	-22.548
1.678	33.03	100.0124	4.0831	-22.487
1.687	33.11	100.0094	4.0830	-22.426
1.695	33.20	100.0063	4.0829	-22.366
1.703	33.29	100.0032	4.0827	-22.306
1.712	33.38	100.0001	4.0826	-22.245
1.720	33.47	99.9970	4.0825	-22.182
1.728	33.56	99.9938	4.0823	-22.119
1.737	33.64	99.9906	4.0822	-22.056
1.745	33.73	99.9874	4.0821	-21.993
1.753	33.82	99.9842	4.0819	-21.930
1.762	33.91	99.9809	4.0818	-21.866
1.770	34.00	99.9776	4.0817	-21.802
1.778	34.09	99.9743	4.0815	-21.737
1.787	34.18	99.9711	4.0814	-21.672
1.795	34.27	99.9677	4.0813	-21.607
1.803	34.36	99.9644	4.0811	-21.542
1.812	34.45	99.9610	4.0810	-21.477
1.820	34.54	99.9577	4.0809	-21.412
1.828	34.63	99.9543	4.0807	-21.346
1.837	34.72	99.9509	4.0806	-21.280
1.845	34.81	99.9474	4.0804	-21.214
1.853	34.90	99.9440	4.0803	-21.148
1.862	34.99	99.9405	4.0802	-21.081
1.870	35.08	99.9370	4.0800	-21.014
1.878	35.17	99.9335	4.0799	-20.947
1.887	35.27	99.9300	4.0797	-20.881
1.895	35.36	99.9265	4.0796	-20.815
1.903	35.45	99.9229	4.0794	-20.749
1.912	35.54	99.9193	4.0793	-20.682
1.920	35.63	99.9156	4.0792	-20.616
1.928	35.72	99.9120	4.0790	-20.550
1.937	35.82	99.9083	4.0789	-20.484
1.945	35.91	99.9046	4.0787	-20.417
1.953	36.00	99.9009	4.0785	-20.352
1.962	36.09	99.8972	4.0784	-20.285
1.970	36.18	99.8934	4.0782	-20.218
1.978	36.28	99.8896	4.0781	-20.151
1.987	36.37	99.8858	4.0779	-20.082
1.995	36.46	99.8820	4.0778	-20.015
2.003	36.55	99.8781	4.0776	-19.946
2.012	36.65	99.8743	4.0775	-19.877
2.020	36.74	99.8704	4.0773	-19.808
2.028	36.83	99.8666	4.0771	-19.740
2.037	36.93	99.8627	4.0770	-19.671
2.045	37.02	99.8589	4.0768	-19.602
2.053	37.11	99.8550	4.0767	-19.533
2.062	37.20	99.8511	4.0765	-19.463
2.070	37.30	99.8472	4.0764	-19.394
2.078	37.39	99.8433	4.0762	-19.325
2.087	37.48	99.8394	4.0760	-19.256
2.095	37.58	99.8354	4.0759	-19.186
2.103	37.67	99.8314	4.0757	-19.116
2.112	37.76	99.8274	4.0755	-19.046
2.120	37.86	99.8234	4.0754	-18.975
2.128	37.95	99.8193	4.0752	-18.905
2.137	38.04	99.8151	4.0750	-18.834
2.145	38.14	99.8110	4.0749	-18.763
2.153	38.23	99.8068	4.0747	-18.692
2.162	38.33	99.8026	4.0745	-18.621
2.170	38.42	99.7984	4.0744	-18.551
2.178	38.51	99.7942	4.0742	-18.482
2.187	38.61	99.7900	4.0740	-18.411
2.195	38.70	99.7858	4.0738	-18.341
2.203	38.79	99.7815	4.0737	-18.271
2.212	38.89	99.7773	4.0735	-18.200
2.220	38.98	99.7730	4.0733	-18.130
2.228	39.08	99.7688	4.0732	-18.061
2.237	39.17	99.7645	4.0730	-17.992
2.245	39.26	99.7603	4.0728	-17.922
2.253	39.36	99.7560	4.0726	-17.850
2.262	39.45	99.7517	4.0725	-17.779
2.270	39.54	99.7473	4.0723	-17.708
2.278	39.64	99.7430	4.0721	-17.638
2.287	39.73	99.7386	4.0719	-17.569
2.295	39.83	99.7343	4.0717	-17.498
2.303	39.92	99.7299	4.0716	-17.427
2.312	40.01	99.7254	4.0714	-17.356
2.320	40.11	99.7210	4.0712	-17.285
2.328	40.20	99.7166	4.0710	-17.215
2.337	40.30	99.7121	4.0708	-17.145
2.345	40.39	99.7076	4.0707	-17.076
2.353	40.48	99.7032	4.0705	-17.006
2.362	40.58	99.6987	4.0703	-16.936
2.370	40.67	99.6942	4.0701	-16.866
2.378	40.76	99.6896	4.0699	-16.796
2.387	40.86	99.6851	4.0697	-16.726
2.395	40.95	99.6805	4.0696	-16.656
2.403	41.05	99.6760	4.0694	-16.585
2.412	41.14	99.6713	4.0692	-16.515
2.420	41.23	99.6667	4.0690	-16.446
2.428	41.33	99.6620	4.0688	-16.375
2.437	41.42	99.6573	4.0686	-16.305
2.445	41.51	99.6526	4.0684	-16.234
2.453	41.61	99.6479	4.0682	-16.164
2.462	41.70	99.6432	4.0680	-16.094
2.470	41.79	99.6384	4.0678	-16.023
2.478	41.89	99.6337	4.0676	-15.953
2.487	41.98	99.6289	4.0674	-15.884
2.495	42.08	99.6242	4.0673	-15.813
2.503	42.17	99.6194	4.0671	-15.743
2.512	42.26	99.6146	4.0669	-15.673
2.520	42.36	99.6098	4.0667	-15.604
2.528	42.45	99.6050	4.0665	-15.535
2.537	42.54	99.6001	4.0663	-15.467
2.545	42.64	99.5953	4.0661	-15.397
2.553	42.73	99.5903	4.0659	-15.328
2.562	42.82	99.5854	4.0657	-15.259
2.570	42.92	99.5805	4.0655	-15.190
2.578	43.01	99.5755	4.0653	-15.121
2.587	43.10	99.5705	4.0651	-15.051
2.595	43.19	99.5655	4.0649	-14.983
2.603	43.29	99.5605	4.0647	-14.913
2.612	43.38	99.5555	4.0644	-14.844
2.620	43.47	99.5505	4.0642	-14.774
2.628	43.56	99.5455	4.0640	-14.705
2.637	43.66	99.5405	4.0638	-14.637
2.645	43.75	99.5355	4.0636	-14.568
2.653	43.84	99.5304	4.0634	-14.500
2.662	43.94	99.5253	4.0632	-14.433
2.670	44.03	99.5202	4.0630	-14.367
2.678	44.12	99.5150	4.0628	-14.298
2.687	44.21	99.5099	4.0626	-14.230
2.695	44.31	99.5047	4.0624	-14.163
2.703	44.40	99.4994	4.0622	-14.095
2.712	44.49	99.4942	4.0619	-14.028
2.720	44.58	99.4889	4.0617	-13.962
2.728	44.67	99.4836	4.0615	-13.895
2.737	44.77	99.4784	4.0613	-13.828
2.745	44.86	99.4731	4.0611	-13.761
2.753	44.95	99.4677	4.0609	-13.694
2.762	45.04	99.4624	4.0606	-13.627
2.770	45.13	99.4571	4.0604	-13.560
2.778	45.23	99.4517	4.0602	-13.493
2.787	45.32	99.4463	4.0600	-13.426
2.795	45.41	99.4409	4.0598	-13.359
2.803	45.50	99.4355	4.0595	-13.293
2.812	45.59	99.4301	4.0593	-13.226
2.820	45.68	99.4246	4.0591	-13.160
2.828	45.78	99.4191	4.0589	-13.094
2.837	45.87	99.4136	4.0587	-13.028
2.845	45.96	99.4081	4.0584	-12.964
2.853	46.05	99.4025	4.0582	-12.898
2.862	46.14	99.3970	4.0580	-12.832
2.870	46.23	99.3914	4.0577	-12.767
2.878	46.32	99.3858	4.0575	-12.702
2.887	46.41	99.3802	4.0573	-12.637
2.895	46.50	99.3745	4.0571	-12.573
2.903	46.60	99.3689	4.0568	-12.507
2.912	46.69	99.3632	4.0566	-12.442
2.920	46.78	99.3575	4.0564	-12.377
2.928	46.87	99.3518	4.0561	-12.312
2.937	46.96	99.3460	4.0559	-12.248
2.945	47.05	99.3403	4.0557	-12.184
2.953	47.14	99.3345	4.0554	-12.120
2.962	47.23	99.3287	4.0552	-12.057
2.970	47.32	99.3229	4.0550	-11.993
2.978	47.41	99.3171	4.0547	-11.929
2.987	47.50	99.3113	4.0545	-11.866
2.995	47.59	99.3054	4.0542	-11.802
3.003	47.68	99.2996	4.0540	-11.738
3.012	47.77	99.2937	4.0538	-11.675
3.020	47.86	99.2878	4.0535	-11.612
3.028	47.95	99.2819	4.0533	-11.549
3.037	48.04	99.2760	4.0530	-11.486
3.045	48.13	99.2700	4.0528	-11.424
3.053	48.22	99.2641	4.0525	-11.362
3.062	48.31	99.2581	4.0523	-11.300
3.070	48.40	99.2521	4.0521	-11.237
3.078	48.49	99.2460	4.0518	-11.176
3.087	48.58	99.2400	4.0516	-11.114
3.095	48.67	99.2339	4.0513	-11.053
3.103	48.76	99.2279	4.0511	-10.991
3.112	48.85	99.2218	4.0508	-10.929
3.120	48.94	99.2157	4.0506	-10.867
3.128	49.03	99.2096	4.0503	-10.806
3.137	49.12	99.2035	4.0501	-10.744
3.145	49.21	99.1974	4.0498	-10.683
3.153	49.30	99.1913	4.0496	-10.623
3.162	49.39	99.1852	4.0493	-10.562
3.170	49.47	99.1790	4.0491	-10.501
3.178	49.56	99.1728	4.0488	-10.440
3.187	49.65	99.1666	4.0486	-10.380
3.195	49.74	99.1604	4.0483	-10.321
3.203	49.83	99.1541	4.0481	-10.262
3.212	49.92	99.1479	4.0478	-10.202
3.220	50.01	99.1416	4.0475	-10.143
3.228	50.10	99.1353	4.0473	-10.084
3.237	50.18	99.1290	4.0470	-10.025
3.245	50.27	99.1228	4.0468	-9.966
3.253	50.36	99.1165	4.0465	-9.907
3.262	50.45	99.1102	4.0463	-9.848
3.270	50.54	99.1039	4.0460	-9.789
3.278	50.63	99.0976	4.0458	-9.730
3.287	50.71	99.0913	4.0455	-9.671
3.295	50.80	99.0849	4.0452	-9.613
3.303	50.89	99.0786	4.0450	-9.554
3.312	50.98	99.0722	4.0447	-9.496
3.320	51.07	99.0659	4.0445	-9.438
3.328	51.15	99.0594	4.0442	-9.379
3.337	51.24	99.0530	4.0439	-9.323
3.345	51.33	99.0466	4.0437	-9.267
3.353	51.42	99.0402	4.0434	-9.210
3.362	51.51	99.0337	4.0431	-9.153
3.370	51.59	99.0273	4.0429	-9.096
3.378	51.68	99.0209	4.0426	-9.040
3.387	51.77	99.0145	4.0424	-8.983
3.395	51.86	99.0080	4.0421	-8.927
3.403	51.94	99.0016	4.0418	-8.871
3.412	52.03	98.9951	4.0416	-8.815
3.420	52.12	98.9887	4.0413	-8.759
3.428	52.20	98.9822	4.0410	-8.702
3.437	52.29	98.9757	4.0408	-8.646
3.445	52.38	98.9692	4.0405	-8.590
3.453	52.47	98.9628	4.0402	-8.533
3.462	52.55	98.9563	4.0400	-8.478
3.470	52.64	98.9498	4.0397	-8.423
3.478	52.73	98.9433	4.0395	-8.367
3.487	52.81	98.9368	4.0392	-8.312
3.495	52.90	98.9302	4.0389	-8.257
3.503	52.99	98.9237	4.0387	-8.203
3.512	53.08	98.9172	4.0384	-8.148
3.520	53.16	98.9107	4.0381	-8.093
3.528	53.25	98.9042	4.0379	-8.039
3.537	53.34	98.8976	4.0376	-7.985
3.545	53.42	98.8911	4.0373	-7.931
3.553	53.51	98.8847	4.0371	-7.877
3.562	53.60	98.8782	4.0368	-7.824
3.570	53.68	98.8717	4.0365	-7.770
3.578	53.77	98.8652	4.0363	-7.717
3.587	53.86	98.8588	4.0360	-7.663
3.595	53.94	98.8523	4.0357	-7.611
3.603	54.03	98.8458	4.0355	-7.559
3.612	54.12	98.8393	4.0352	-7.507
3.620	54.20	98.8328	4.0349	-7.455
3.628	54.29	98.8263	4.0347	-7.403
3.637	54.37	98.8198	4.0344	-7.350
3.645	54.46	98.8133	4.0341	-7.297
3.653	54.55	98.8068	4.0339	-7.246
3.662	54.63	98.8003	4.0336	-7.194
3.670	54.72	98.7938	4.0333	-7.142
3.678	54.81	98.7873	4.0331	-7.090
3.687	54.89	98.7807	4.0328	-7.037
3.695	54.98	98.7742	4.0325	-6.984
3.703	55.06	98.7677	4.0323	-6.933
3.712	55.15	98.7612	4.0320	-6.882
3.720	55.24	98.7546	4.0318	-6.832
3.728	55.32	98.7481	4.0315	-6.782
3.737	55.41	98.7416	4.0312	-6.731
3.745	55.49	98.7351	4.0310	-6.681
3.753	55.58	98.7286	4.0307	-6.630
3.762	55.67	98.7221	4.0304	-6.580
3.770	55.75	98.7156	4.0302	-6.530
3.778	55.84	98.7090	4.0299	-6.481
3.787	55.92	98.7025	4.0296	-6.431
3.795	56.01	98.6960	4.0294	-6.380
3.803	56.09	98.6895	4.0291	-6.329
3.812	56.18	98.6830	4.0288	-6.279
3.820	56.27	98.6765	4.0286	-6.229
3.828	56.35	98.6700	4.0283	-6.180
3.837	56.44	98.6635	4.0280	-6.131
3.845	56.52	98.6570	4.0278	-6.082
3.853	56.61	98.6505	4.0275	-6.031
3.862	56.69	98.6440	4.0272	-5.980
3.870	56.78	98.6375	4.0270	-5.932
3.878	56.87	98.6310	4.0267	-5.883
3.887	56.95	98.6245	4.0264	-5.836
3.895	57.04	98.6181	4.0262	-5.787
3.903	57.12	98.6116	4.0259	-5.737
3.912	57.21	98.6051	4.0256	-5.687
3.920	57.29	98.5986	4.0254	-5.637
3.928	57.38	98.5922	4.0251	-5.589
3.937	57.46	98.5857	4.0249	-5.541
3.945	57.55	98.5793	4.0246	-5.493
3.953	57.63	98.5729	4.0243	-5.444
3.962	57.72	98.5664	4.0241	-5.397
3.970	57.81	98.5600	4.0238	-5.348
3.978	57.89	98.5536	4.0235	-5.300
3.987	57.98	98.5472	4.0233	-5.253
3.995	58.06	98.5408	4.0230	-5.206
4.003	58.15	98.5344	4.0228	-5.159
4.012	58.23	98.5280	4.0225	-5.111
4.020	58.32	98.5217	4.0222	-5.064
4.028	58.40	98.5153	4.0220	-5.018
4.037	58.49	98.5090	4.0217	-4.972
4.045	58.57	98.5027	4.0215	-4.925
4.053	58.66	98.4964	4.0212	-4.880
4.062	58.74	98.4901	4.0209	-4.834
4.070	58.83	98.4837	4.0207	-4.788
4.078	58.91	98.4775	4.0204	-4.742
4.087	59.00	98.4712	4.0202	-4.697
4.095	59.08	98.4649	4.0199	-4.652
4.103	59.17	98.4586	4.0197	-4.606
4.112	59.25	98.4523	4.0194	-4.561
4.120	59.34	98.4460	4.0191	-4.514
4.128	59.42	98.4397	4.0189	-4.468
4.137	59.51	98.4334	4.0186	-4.422
4.145	59.59	98.4271	4.0184	-4.378
4.153	59.68	98.4208	4.0181	-4.333
4.162	59.76	98.4145	4.0179	-4.288
4.170	59.85	98.4082	4.0176	-4.243
4.178	59.93	98.4020	4.0174	-4.198
4.187	60.02	98.3957	4.0171	-4.154
4.195	60.10	98.3895	4.0168	-4.108
4.203	60.19	98.3832	4.0166	-4.064
4.212	60.27	98.3770	4.0163	-4.019
4.220	60.36	98.3708	4.0161	-3.976
4.228	60.44	98.3646	4.0158	-3.932
4.237	60.53	98.3584	4.0156	-3.888
4.245	60.61	98.3523	4.0153	-3.844
4.253	60.70	98.3461	4.0151	-3.800
4.262	60.78	98.3399	4.0148	-3.756
4.270	60.87	98.3338	4.0146	-3.712
4.278	60.95	98.3277	4.0143	-3.669
4.287	61.04	98.3216	4.0141	-3.625
4.295	61.12	98.3155	4.0138	-3.581
4.303	61.21	98.3095	4.0136	-3.537
4.312	61.29	98.3034	4.0133	-3.493
4.320	61.38	98.2974	4.0131	-3.449
4.328	61.46	98.2913	4.0128	-3.406
4.337	61.55	98.2853	4.0126	-3.362
4.345	61.63	98.2793	4.0123	-3.320
4.353	61.72	98.2733	4.0121	-3.276
4.362	61.80	98.2673	4.0119	-3.233
4.370	61.89	98.2614	4.0116	-3.191
4.378	61.97	98.2554	4.0114	-3.149
4.387	62.06	98.2495	4.0111	-3.107
4.395	62.14	98.2436	4.0109	-3.064
4.403	62.23	98.2376	4.0106	-3.021
4.412	62.31	98.2317	4.0104	-2.979
4.420	62.40	98.2258	4.0102	-2.936
4.428	62.48	98.2200	4.0099	-2.894
4.437	62.57	98.2141	4.0097	-2.852
4.445	62.65	98.2082	4.0094	-2.811
4.453	62.74	98.2024	4.0092	-2.768
4.462	62.82	98.1965	4.0090	-2.726
4.470	62.91	98.1907	4.0087	-2.684
4.478	62.99	98.1849	4.0085	-2.643
4.487	63.08	98.1791	4.0083	-2.602
4.495	63.16	98.1733	4.0080	-2.561
4.503	63.25	98.1676	4.0078	-2.520
4.512	63.33	98.1618	4.0075	-2.479
4.520	63.42	98.1561	4.0073	-2.439
4.528	63.50	98.1504	4.0071	-2.398
4.537	63.59	98.1447	4.0068	-2.357
4.545	63.67	98.1390	4.0066	-2.316
4.553	63.76	98.1333	4.0064	-2.276
4.562	63.84	98.1276	4.0062	-2.236
4.570	63.93	98.1219	4.0059	-2.195
4.578	64.01	98.1163	4.0057	-2.154
4.587	64.10	98.1106	4.0055	-2.114
4.595	64.18	98.1050	4.0052	-2.073
4.603	64.27	98.0994	4.0050	-2.033
4.612	64.35	98.0937	4.0048	-1.993
4.620	64.44	98.0882	4.0045	-1.953
4.628	64.52	98.0826	4.0043	-1.913
4.637	64.61	98.0770	4.0041	-1.873
4.645	64.69	98.0714	4.0039	-1.833
4.653	64.78	98.0659	4.0036	-1.793
4.662	64.86	98.0604	4.0034	-1.754
4.670	64.95	98.0548	4.0032	-1.715
4.678	65.03	98.0493	4.0030	-1.675
4.687	65.12	98.0439	4.0027	-1.634
4.695	65.20	98.0384	4.0025	-1.595
4.703	65.29	98.0330	4.0023	-1.556
4.712	65.37	98.0276	4.0021	-1.517
4.720	65.46	98.0222	4.0018	-1.478
4.728	65.54	98.0168	4.0016	-1.438
4.737	65.63	98.0115	4.0014	-1.400
4.745	65.71	98.0062	4.0012	-1.361
4.753	65.80	98.0009	4.0010	-1.322
4.762	65.89	97.9956	4.0008	-1.285
4.770	65.97	97.9904	4.0005	-1.247
4.778	66.05	97.9852	4.0003	-1.208
4.787	66.14	97.9799	4.0001	-1.170
4.795	66.22	97.9747	3.9999	-1.132
4.803	66.31	97.9695	3.9997	-1.095
4.812	66.39	97.9644	3.9995	-1.058
4.820	66.48	97.9592	3.9993	-1.019
4.828	66.57	97.9540	3.9991	-0.982
4.837	66.65	97.9489	3.9989	-0.945
4.845	66.74	97.9437	3.9986	-0.907
4.853	66.82	97.9386	3.9984	-0.870
4.862	66.91	97.9334	3.9982	-0.832
4.870	66.99	97.9283	3.9980	-0.795
4.878	67.08	97.9232	3.9978	-0.757
4.887	67.16	97.9181	3.9976	-0.719
4.895	67.25	97.9131	3.9974	-0.681
4.903	67.33	97.9080	3.9972	-0.643
4.912	67.42	97.9030	3.9970	-0.606
4.920	67.50	97.8980	3.9968	-0.569
4.928	67.59	97.8931	3.9966	-0.531
4.937	67.67	97.8881	3.9964	-0.493
4.945	67.76	97.8832	3.9962	-0.455
4.953	67.85	97.8784	3.9960	-0.418
4.962	67.93	97.8735	3.9958	-0.381
4.970	68.02	97.8686	3.9956	-0.344
4.978	68.10	97.8638	3.9954	-0.307
4.987	68.19	97.8589	3.9952	-0.271
4.995	68.27	97.8541	3.9950	-0.235
5.003	68.36	97.8493	3.9948	-0.198
5.012	68.44	97.8446	3.9946	-0.162
5.020	68.53	97.8398	3.9944	-0.126
5.028	68.61	97.8351	3.9942	-0.091
5.037	68.70	97.8304	3.9940	-0.057
5.045	68.78	97.8258	3.9938	-0.023
5.053	68.87	97.8211	3.9936	0.012
5.062	68.95	97.8165	3.9934	0.047
5.070	69.04	97.8119	3.9933	0.081
5.078	69.12	97.8073	3.9931	0.116
5.087	69.21	97.8027	3.9929	0.150
5.095	69.30	97.7981	3.9927	0.185
5.103	69.38	97.7935	3.9925	0.218
5.112	69.47	97.7889	3.9923	0.253
5.120	69.55	97.7844	3.9921	0.289
5.128	69.64	97.7798	3.9920	0.325
5.137	69.72	97.7753	3.9918	0.361
5.145	69.81	97.7708	3.9916	0.396
5.153	69.90	97.7663	3.9914	0.431
5.162	69.98	97.7618	3.9912	0.467
5.170	70.07	97.7574	3.9910	0.502
5.178	70.15	97.7530	3.9909	0.537
5.187	70.24	97.7486	3.9907	0.572
5.195	70.32	97.7442	3.9905	0.607
5.203	70.41	97.7399	3.9903	0.641
5.212	70.49	97.7357	3.9901	0.675
5.220	70.58	97.7314	3.9900	0.708
5.228	70.67	97.7271	3.9898	0.741
5.237	70.75	97.7229	3.9896	0.774
5.245	70.84	97.7186	3.9895	0.807
5.253	70.92	97.7144	3.9893	0.841
5.262	71.01	97.7102	3.9891	0.874
5.270	71.09	97.7060	3.9889	0.906
5.278	71.18	97.7018	3.9888	0.941
5.287	71.27	97.6977	3.9886	0.975
5.295	71.35	97.6935	3.9884	1.009
5.303	71.44	97.6894	3.9883	1.044
5.312	71.52	97.6853	3.9881	1.079
5.320	71.61	97.6812	3.9879	1.113
5.328	71.69	97.6771	3.9878	1.147
5.337	71.78	97.6731	3.9876	1.181
5.345	71.87	97.6690	3.9874	1.214
5.353	71.95	97.6650	3.9873	1.247
5.362	72.04	97.6610	3.9871	1.279
5.370	72.12	97.6570	3.9869	1.311
5.378	72.21	97.6530	3.9868	1.342
5.387	72.29	97.6491	3.9866	1.374
5.395	72.38	97.6451	3.9865	1.405
5.403	72.47	97.6412	3.9863	1.438
5.412	72.55	97.6373	3.9861	1.470
5.420	72.64	97.6335	3.9860	1.502
5.428	72.72	97.6297	3.9858	1.534
5.437	72.81	97.6258	3.9857	1.567
5.445	72.90	97.6220	3.9855	1.599
5.453	72.98	97.6182	3.9854	1.631
5.462	73.07	97.6145	3.9852	1.663
5.470	73.15	97.6107	3.9850	1.696
5.478	73.24	97.6070	3.9849	1.727
5.487	73.33	97.6033	3.9847	1.757
5.495	73.41	97.5996	3.9846	1.788
5.503	73.50	97.5958	3.9844	1.818
5.512	73.58	97.5922	3.9843	1.849
5.520	73.67	97.5885	3.9841	1.880
5.528	73.76	97.5848	3.9840	1.911
5.537	73.84	97.5812	3.9838	1.941
5.545	73.93	97.5776	3.9837	1.971
5.553	74.02	97.5740	3.9836	2.002
5.562	74.10	97.5705	3.9834	2.033
5.570	74.19	97.5669	3.9833	2.063
5.578	74.27	97.5634	3.9831	2.093
5.587	74.36	97.5599	3.9830	2.123
5.595	74.45	97.5565	3.9828	2.154
5.603	74.53	97.5530	3.9827	2.184
5.612	74.62	97.5496	3.9826	2.215
5.620	74.70	97.5462	3.9824	2.245
5.628	74.79	97.5428	3.9823	2.276
5.637	74.88	97.5394	3.9821	2.306
5.645	74.96	97.5361	3.9820	2.335
5.653	75.05	97.5327	3.9819	2.365
5.662	75.13	97.5294	3.9817	2.395
5.670	75.22	97.5261	3.9816	2.425
5.678	75.31	97.5228	3.9815	2.455
5.687	75.39	97.5195	3.9813	2.484
5.695	75.48	97.5162	3.9812	2.512
5.703	75.57	97.5130	3.9811	2.540
5.712	75.65	97.5098	3.9809	2.569
5.720	75.74	97.5065	3.9808	2.598
5.728	75.82	97.5034	3.9807	2.627
5.737	75.91	97.5002	3.9805	2.657
5.745	76.00	97.4970	3.9804	2.687
5.753	76.08	97.4939	3.9803	2.716
5.762	76.17	97.4908	3.9802	2.745
5.770	76.26	97.4877	3.9800	2.773
5.778	76.34	97.4846	3.9799	2.803
5.787	76.43	97.4816	3.9798	2.832
5.795	76.51	97.4785	3.9797	2.861
5.803	76.60	97.4755	3.9795	2.889
5.812	76.69	97.4725	3.9794	2.917
5.820	76.77	97.4695	3.9793	2.946
5.828	76.86	97.4666	3.9792	2.975
5.837	76.95	97.4636	3.9790	3.003
5.845	77.03	97.4607	3.9789	3.031
5.853	77.12	97.4578	3.9788	3.059
5.862	77.20	97.4549	3.9787	3.086
5.870	77.29	97.4519	3.9786	3.114
5.878	77.38	97.4490	3.9784	3.142
5.887	77.46	97.4462	3.9783	3.169
5.895	77.55	97.4433	3.9782	3.197
5.903	77.64	97.4404	3.9781	3.223
5.912	77.72	97.4375	3.9780	3.249
5.920	77.81	97.4347	3.9779	3.276
5.928	77.89	97.4319	3.9777	3.302
5.937	77.98	97.4291	3.9776	3.328
5.945	78.07	97.4264	3.9775	3.355
5.953	78.15	97.4236	3.9774	3.381
5.962	78.24	97.4209	3.9773	3.407
5.970	78.33	97.4183	3.9772	3.433
5.978	78.41	97.4156	3.9771	3.459
5.987	78.50	97.4130	3.9770	3.486
5.995	78.59	97.4104	3.9769	3.512
6.003	78.67	97.4078	3.9768	3.538
6.012	78.76	97.4052	3.9767	3.565
6.020	78.85	97.4026	3.9766	3.592
6.028	78.93	97.4000	3.9764	3.618
6.037	79.02	97.3974	3.9763	3.645
6.045	79.11	97.3949	3.9762	3.671
6.053	79.19	97.3923	3.9761	3.696
6.062	79.28	97.3897	3.9760	3.721
6.070	79.36	97.3872	3.9759	3.747
6.078	79.45	97.3847	3.9758	3.772
6.087	79.54	97.3822	3.9757	3.797
6.095	79.62	97.3797	3.9756	3.822
6.103	79.71	97.3773	3.9755	3.846
6.112	79.80	97.3749	3.9754	3.870
6.120	79.88	97.3725	3.9753	3.894
6.128	79.97	97.3701	3.9752	3.919
6.137	80.06	97.3677	3.9751	3.944
6.145	80.14	97.3654	3.9750	3.969
6.153	80.23	97.3630	3.9749	3.994
6.162	80.32	97.3607	3.9748	4.018
6.170	80.40	97.3584	3.9747	4.041
6.178	80.49	97.3561	3.9747	4.064
6.187	80.57	97.3538	3.9746	4.088
6.195	80.66	97.3515	3.9745	4.112
6.203	80.75	97.3492	3.9744	4.136
6.212	80.83	97.3470	3.9743	4.161
6.220	80.92	97.3448	3.9742	4.185
6.228	81.01	97.3426	3.9741	4.210
6.237	81.09	97.3404	3.9740	4.234
6.245	81.18	97.3382	3.9739	4.258
6.253	81.27	97.3360	3.9738	4.283
6.262	81.35	97.3339	3.9737	4.307
6.270	81.44	97.3318	3.9737	4.332
6.278	81.53	97.3296	3.9736	4.357
6.287	81.61	97.3275	3.9735	4.380
6.295	81.70	97.3254	3.9734	4.402
6.303	81.79	97.3233	3.9733	4.424
6.312	81.87	97.3212	3.9732	4.446
6.320	81.96	97.3191	3.9731	4.469
6.328	82.05	97.3170	3.9731	4.492
6.337	82.13	97.3150	3.9730	4.514
6.345	82.22	97.3129	3.9729	4.538
6.353	82.31	97.3109	3.9728	4.561
6.362	82.39	97.3089	3.9727	4.584
6.370	82.48	97.3069	3.9726	4.609
6.378	82.57	97.3049	3.9726	4.633
6.387	82.65	97.3029	3.9725	4.657
6.395	82.74	97.3010	3.9724	4.681
6.403	82.82	97.2991	3.9723	4.704
6.412	82.91	97.2972	3.9722	4.727
6.420	83.00	97.2953	3.9722	4.749
6.428	83.08	97.2934	3.9721	4.770
6.437	83.17	97.2916	3.9720	4.791
6.445	83.26	97.2897	3.9719	4.812
6.453	83.34	97.2879	3.9719	4.832
6.462	83.43	97.2861	3.9718	4.853
6.470	83.52	97.2843	3.9717	4.875
6.478	83.60	97.2825	3.9716	4.896
6.487	83.69	97.2807	3.9716	4.917
6.495	83.78	97.2790	3.9715	4.938
6.503	83.86	97.2773	3.9714	4.960
6.512	83.95	97.2755	3.9714	4.982
6.520	84.04	97.2738	3.9713	5.004
6.528	84.12	97.2721	3.9712	5.025
6.537	84.21	97.2704	3.9712	5.047
6.545	84.30	97.2687	3.9711	5.068
6.553	84.38	97.2671	3.9710	5.088
6.562	84.47	97.2654	3.9710	5.109
6.570	84.56	97.2637	3.9709	5.131
6.578	84.64	97.2621	3.9708	5.152
6.587	84.73	97.2605	3.9707	5.173
6.595	84.81	97.2588	3.9707	5.194
6.603	84.90	97.2572	3.9706	5.216
6.612	84.99	97.2556	3.9706	5.237
6.620	85.07	97.2540	3.9705	5.258
6.628	85.16	97.2524	3.9704	5.279
6.637	85.25	97.2508	3.9704	5.300
6.645	85.33	97.2492	3.9703	5.320
6.653	85.42	97.2476	3.9702	5.340
6.662	85.51	97.2460	3.9702	5.360
6.670	85.59	97.2445	3.9701	5.378
6.678	85.68	97.2429	3.9700	5.396
6.687	85.77	97.2413	3.9700	5.415
6.695	85.85	97.2398	3.9699	5.434
6.703	85.94	97.2383	3.9698	5.453
6.712	86.03	97.2368	3.9698	5.471
6.720	86.11	97.2353	3.9697	5.489
6.728	86.20	97.2338	3.9697	5.508
6.737	86.29	97.2324	3.9696	5.528
6.745	86.37	97.2309	3.9695	5.547
6.753	86.46	97.2295	3.9695	5.567
6.762	86.55	97.2281	3.9694	5.586
6.770	86.63	97.2267	3.9694	5.605
6.778	86.72	97.2253	3.9693	5.624
6.787	86.81	97.2239	3.9693	5.643
6.795	86.89	97.2226	3.9692	5.663
6.803	86.98	97.2212	3.9691	5.682
6.812	87.06	97.2199	3.9691	5.700
6.820	87.15	97.2186	3.9690	5.718
6.828	87.24	97.2172	3.9690	5.736
6.837	87.32	97.2159	3.9689	5.756
6.845	87.41	97.2146	3.9689	5.776
6.853	87.50	97.2133	3.9688	5.796
6.862	87.58	97.2120	3.9688	5.814
6.870	87.67	97.2107	3.9687	5.832
6.878	87.76	97.2094	3.9687	5.851
6.887	87.84	97.2081	3.9686	5.868
6.895	87.93	97.2069	3.9686	5.886
6.903	88.01	97.2056	3.9685	5.904
6.912	88.10	97.2043	3.9685	5.922
6.920	88.19	97.2031	3.9684	5.939
6.928	88.27	97.2018	3.9684	5.957
6.937	88.36	97.2006	3.9683	5.974
6.945	88.45	97.1993	3.9683	5.992
6.953	88.53	97.1981	3.9682	6.009
6.962	88.62	97.1969	3.9682	6.026
6.970	88.71	97.1957	3.9681	6.044
6.978	88.79	97.1945	3.9681	6.061
6.987	88.88	97.1933	3.9680	6.078
6.995	88.97	97.1922	3.9680	6.095
7.003	89.05	97.1910	3.9679	6.112
7.012	89.14	97.1899	3.9679	6.128
7.020	89.23	97.1887	3.9678	6.145
7.028	89.31	97.1876	3.9678	6.161
7.037	89.40	97.1865	3.9677	6.177
7.045	89.48	97.1854	3.9677	6.194
7.053	89.57	97.1844	3.9676	6.212
7.062	89.66	97.1833	3.9676	6.228
7.070	89.74	97.1823	3.9676	6.246
7.078	89.83	97.1812	3.9675	6.262
7.087	89.92	97.1802	3.9675	6.279
7.095	90.00	97.1792	3.9674	6.295
7.103	90.09	97.1783	3.9674	6.311
7.112	90.18	97.1773	3.9674	6.327
7.120	90.26	97.1763	3.9673	6.343
7.128	90.35	97.1754	3.9673	6.359
7.137	90.44	97.1745	3.9672	6.374
7.145	90.52	97.1735	3.9672	6.388
7.153	90.61	97.1726	3.9672	6.403
7.162	90.69	97.1717	3.9671	6.417
7.170	90.78	97.1707	3.9671	6.432
7.178	90.87	97.1698	3.9670	6.446
7.187	90.95	97.1689	3.9670	6.462
7.195	91.04	97.1680	3.9670	6.478
7.203	91.13	97.1671	3.9669	6.494
7.212	91.21	97.1662	3.9669	6.508
7.220	91.30	97.1652	3.9669	6.522
7.228	91.39	97.1644	3.9668	6.537
7.237	91.47	97.1635	3.9668	6.552
7.245	91.56	97.1627	3.9668	6.566
7.253	91.64	97.1618	3.9667	6.580
7.262	91.73	97.1610	3.9667	6.593
7.270	91.82	97.1602	3.9667	6.606
7.278	91.90	97.1593	3.9666	6.619
7.287	91.99	97.1585	3.9666	6.633
7.295	92.08	97.1578	3.9666	6.647
7.303	92.16	97.1570	3.9665	6.661
7.312	92.25	97.1562	3.9665	6.674
7.320	92.33	97.1554	3.9665	6.689
7.328	92.42	97.1547	3.9664	6.703
7.337	92.51	97.1539	3.9664	6.718
7.345	92.59	97.1532	3.9664	6.732
7.353	92.68	97.1524	3.9663	6.746
7.362	92.77	97.1517	3.9663	6.759
7.370	92.85	97.1509	3.9663	6.773
7.378	92.94	97.1502	3.9662	6.786
7.387	93.02	97.1495	3.9662	6.799
7.395	93.11	97.1488	3.9662	6.812
7.403	93.20	97.1480	3.9662	6.825
7.412	93.28	97.1473	3.9661	6.837
7.420	93.37	97.1466	3.9661	6.849
7.428	93.45	97.1460	3.9661	6.861
7.437	93.54	97.1453	3.9660	6.874
7.445	93.63	97.1446	3.9660	6.886
7.453	93.71	97.1440	3.9660	6.898
7.462	93.80	97.1433	3.9660	6.910
7.470	93.89	97.1427	3.9659	6.923
7.478	93.97	97.1421	3.9659	6.935
7.487	94.06	97.1414	3.9659	6.947
7.495	94.14	97.1408	3.9659	6.959
7.503	94.23	97.1402	3.9658	6.972
7.512	94.32	97.1395	3.9658	6.984
7.520	94.40	97.1389	3.9658	6.995
7.528	94.49	97.1383	3.9658	7.008
7.537	94.58	97.1376	3.9657	7.019
7.545	94.66	97.1370	3.9657	7.032
7.553	94.75	97.1363	3.9657	7.044
7.562	94.84	97.1357	3.9657	7.056
7.570	94.92	97.1351	3.9656	7.068
7.578	95.01	97.1345	3.9656	7.080
7.587	95.09	97.1339	3.9656	7.092
7.595	95.18	97.1334	3.9656	7.104
7.603	95.27	97.1328	3.9655	7.116
7.612	95.35	97.1323	3.9655	7.126
7.620	95.44	97.1318	3.9655	7.137
7.628	95.52	97.1313	3.9655	7.146
7.637	95.61	97.1308	3.9655	7.155
7.645	95.70	97.1303	3.9654	7.164
7.653	95.78	97.1298	3.9654	7.174
7.662	95.87	97.1293	3.9654	7.184
7.670	95.95	97.1288	3.9654	7.193
7.678	96.04	97.1283	3.9654	7.202
7.687	96.12	97.1278	3.9653	7.212
7.695	96.21	97.1273	3.9653	7.222
7.703	96.30	97.1269	3.9653	7.232
7.712	96.38	97.1264	3.9653	7.242
7.720	96.47	97.1259	3.9653	7.253
7.728	96.55	97.1255	3.9652	7.264
7.737	96.64	97.1250	3.9652	7.275
7.745	96.73	97.1245	3.9652	7.285
7.753	96.81	97.1241	3.9652	7.295
7.762	96.90	97.1236	3.9652	7.304
7.770	96.99	97.1232	3.9651	7.313
7.778	97.07	97.1227	3.9651	7.323
7.787	97.16	97.1222	3.9651	7.332
7.795	97.24	97.1218	3.9651	7.341
7.803	97.33	97.1213	3.9651	7.351
7.812	97.42	97.1209	3.9650	7.360
7.820	97.50	97.1204	3.9650	7.369
7.828	97.59	97.1200	3.9650	7.379
7.837	97.67	97.1195	3.9650	7.389
7.845	97.76	97.1191	3.9650	7.400
7.853	97.84	97.1187	3.9650	7.410
7.862	97.93	97.1183	3.9649	7.420
7.870	98.02	97.1178	3.9649	7.431
7.878	98.10	97.1174	3.9649	7.441
7.887	98.19	97.1170	3.9649	7.450
7.895	98.27	97.1166	3.9649	7.458
7.903	98.36	97.1161	3.9649	7.466
7.912	98.45	97.1157	3.9648	7.475
7.920	98.53	97.1153	3.9648	7.483
7.928	98.62	97.1148	3.9648	7.491
7.937	98.70	97.1144	3.9648	7.500
7.945	98.79	97.1140	3.9648	7.507
7.953	98.88	97.1136	3.9648	7.514
7.962	98.96	97.1132	3.9647	7.521
7.970	99.05	97.1127	3.9647	7.528
7.978	99.13	97.1123	3.9647	7.535
7.987	99.22	97.1119	3.9647	7.543
7.995	99.31	97.1115	3.9647	7.550
8.003	99.39	97.1111	3.9647	7.557
8.012	99.48	97.1107	3.9646	7.564
8.020	99.56	97.1103	3.9646	7.570
8.028	99.65	97.1099	3.9646	7.577
8.037	99.73	97.1095	3.9646	7.583
8.045	99.82	97.1091	3.9646	7.590
8.053	99.91	97.1088	3.9646	7.597
8.062	99.99	97.1084	3.9645	7.604
8.070	100.08	97.1081	3.9645	7.612
8.078	100.16	97.1078	3.9645	7.620
8.087	100.25	97.1074	3.9645	7.626
8.095	100.33	97.1071	3.9645	7.633
8.103	100.42	97.1068	3.9645	7.640
8.112	100.51	97.1065	3.9645	7.647
8.120	100.59	97.1062	3.9645	7.655
8.128	100.68	97.1059	3.9644	7.663
8.137	100.76	97.1056	3.9644	7.670
8.145	100.85	97.1053	3.9644	7.677
8.153	100.94	97.1050	3.9644	7.683
8.162	101.02	97.1047	3.9644	7.690
8.170	101.11	97.1045	3.9644	7.696
8.178	101.19	97.1042	3.9644	7.703
8.187	101.28	97.1039	3.9644	7.710
8.195	101.36	97.1036	3.9643	7.716
8.203	101.45	97.1033	3.9643	7.722
8.212	101.54	97.1030	3.9643	7.728
8.220	101.62	97.1027	3.9643	7.733
8.228	101.71	97.1024	3.9643	7.739
8.237	101.79	97.1021	3.9643	7.744
8.245	101.88	97.1018	3.9643	7.750
8.253	101.96	97.1015	3.9643	7.756
8.262	102.05	97.1012	3.9642	7.761
8.270	102.14	97.1008	3.9642	7.767
8.278	102.22	97.1005	3.9642	7.772
8.287	102.31	97.1002	3.9642	7.778
8.295	102.39	97.0999	3.9642	7.784
8.303	102.48	97.0996	3.9642	7.790
8.312	102.56	97.0993	3.9642	7.795
8.320	102.65	97.0991	3.9642	7.801
8.328	102.74	97.0988	3.9641	7.805
8.337	102.82	97.0985	3.9641	7.809
8.345	102.91	97.0983	3.9641	7.815
8.353	102.99	97.0980	3.9641	7.820
8.362	103.08	97.0978	3.9641	7.826
8.370	103.17	97.0975	3.9641	7.831
8.378	103.25	97.0973	3.9641	7.836
8.387	103.34	97.0970	3.9641	7.841
8.395	103.42	97.0968	3.9641	7.846
8.403	103.51	97.0966	3.9641	7.851
8.412	103.59	97.0963	3.9640	7.857
8.420	103.68	97.0961	3.9640	7.862
8.428	103.77	97.0959	3.9640	7.867
8.437	103.85	97.0957	3.9640	7.870
8.445	103.94	97.0955	3.9640	7.874
8.453	104.02	97.0953	3.9640	7.878
8.462	104.11	97.0951	3.9640	7.882
8.470	104.19	97.0950	3.9640	7.886
8.478	104.28	97.0948	3.9640	7.890
8.487	104.36	97.0945	3.9640	7.894
8.495	104.45	97.0943	3.9640	7.898
8.503	104.54	97.0941	3.9640	7.902
8.512	104.62	97.0937	3.9639	7.905
8.520	104.71	97.0934	3.9639	7.909
8.528	104.79	97.0930	3.9639	7.912
8.537	104.88	97.0925	3.9639	7.916
8.545	104.96	97.0921	3.9639	7.919
8.553	105.05	97.0918	3.9639	7.923
8.562	105.14	97.0914	3.9638	7.927
8.570	105.22	97.0910	3.9638	7.931
8.578	105.31	97.0905	3.9638	7.936
8.587	105.39	97.0901	3.9638	7.940
8.595	105.48	97.0897	3.9638	7.944
8.603	105.56	97.0893	3.9638	7.949
8.612	105.65	97.0890	3.9638	7.953
8.620	105.74	97.0887	3.9637	7.956
8.628	105.82	97.0884	3.9637	7.960
8.637	105.91	97.0881	3.9637	7.963
8.645	105.99	97.0878	3.9637	7.966
8.653	106.08	97.0875	3.9637	7.968
8.662	106.16	97.0874	3.9637	7.970
8.670	106.25	97.0873	3.9637	7.973
8.678	106.34	97.0872	3.9637	7.975
8.687	106.42	97.0871	3.9637	7.977
8.695	106.51	97.0870	3.9637	7.980

[step]
Isothermal 30.0 min
Time	Temperature	Weight	Weight	Heat Flow
min	°C	%	mg	mW
8.703	106.59	97.0869	3.9637	7.983
8.728	106.85	97.0868	3.9637	7.991
8.753	107.11	97.0866	3.9637	8.000
8.778	107.36	97.0864	3.9636	8.008
8.803	107.62	97.0861	3.9636	8.018
8.828	107.87	97.0857	3.9636	8.030
8.853	108.12	97.0854	3.9636	8.047
8.878	108.37	97.0850	3.9636	8.069
8.903	108.61	97.0846	3.9636	8.095
8.928	108.85	97.0841	3.9636	8.128
8.953	109.09	97.0837	3.9635	8.166
8.978	109.32	97.0833	3.9635	8.209
9.003	109.55	97.0829	3.9635	8.252
9.028	109.77	97.0823	3.9635	8.299
9.053	109.99	97.0817	3.9635	8.349
9.078	110.21	97.0809	3.9634	8.404
9.103	110.41	97.0802	3.9634	8.465
9.128	110.62	97.0794	3.9634	8.529
9.153	110.81	97.0787	3.9633	8.595
9.178	111.00	97.0780	3.9633	8.665
9.203	111.18	97.0773	3.9633	8.734
9.228	111.36	97.0765	3.9632	8.809
9.253	111.53	97.0758	3.9632	8.882
9.278	111.69	97.0751	3.9632	8.963
9.303	111.85	97.0743	3.9632	9.045
9.328	112.00	97.0735	3.9631	9.130
9.353	112.14	97.0727	3.9631	9.214
9.378	112.28	97.0717	3.9630	9.297
9.403	112.41	97.0708	3.9630	9.380
9.428	112.53	97.0699	3.9630	9.465
9.453	112.65	97.0690	3.9629	9.553
9.478	112.75	97.0683	3.9629	9.644
9.503	112.86	97.0675	3.9629	9.735
9.528	112.95	97.0667	3.9628	9.830
9.553	113.03	97.0657	3.9628	9.923
9.578	113.11	97.0648	3.9628	10.021
9.603	113.18	97.0638	3.9627	10.115
9.628	113.25	97.0629	3.9627	10.205
9.653	113.31	97.0619	3.9626	10.291
9.678	113.36	97.0604	3.9626	10.377
9.703	113.41	97.0588	3.9625	10.463
9.728	113.45	97.0570	3.9624	10.548
9.753	113.48	97.0554	3.9624	10.630
9.778	113.51	97.0539	3.9623	10.707
9.803	113.54	97.0525	3.9623	10.783
9.828	113.55	97.0511	3.9622	10.854
9.853	113.57	97.0497	3.9621	10.924
9.878	113.58	97.0480	3.9621	10.990
9.903	113.58	97.0465	3.9620	11.055
9.928	113.58	97.0452	3.9620	11.114
9.953	113.58	97.0443	3.9619	11.172
9.978	113.57	97.0438	3.9619	11.225
10.003	113.56	97.0433	3.9619	11.277
10.028	113.54	97.0426	3.9619	11.327
10.053	113.52	97.0419	3.9618	11.376
10.078	113.50	97.0412	3.9618	11.421
10.103	113.47	97.0403	3.9618	11.464
10.128	113.45	97.0393	3.9617	11.501
10.153	113.42	97.0383	3.9617	11.534
10.178	113.39	97.0374	3.9616	11.563
10.203	113.35	97.0366	3.9616	11.588
10.228	113.32	97.0358	3.9616	11.607
10.253	113.28	97.0351	3.9615	11.622
10.278	113.25	97.0344	3.9615	11.635
10.303	113.21	97.0338	3.9615	11.646
10.328	113.17	97.0331	3.9615	11.656
10.353	113.13	97.0325	3.9614	11.663
10.378	113.09	97.0318	3.9614	11.667
10.403	113.05	97.0313	3.9614	11.668
10.428	113.01	97.0307	3.9614	11.670
10.453	112.97	97.0301	3.9613	11.670
10.478	112.93	97.0296	3.9613	11.669
10.503	112.89	97.0290	3.9613	11.667
10.528	112.85	97.0284	3.9613	11.662
10.553	112.81	97.0280	3.9613	11.655
10.578	112.78	97.0276	3.9612	11.647
10.603	112.74	97.0271	3.9612	11.637
10.628	112.70	97.0267	3.9612	11.625
10.653	112.66	97.0263	3.9612	11.611
10.678	112.62	97.0258	3.9612	11.594
10.703	112.58	97.0253	3.9611	11.576
10.728	112.55	97.0248	3.9611	11.556
10.753	112.51	97.0244	3.9611	11.534
10.778	112.48	97.0239	3.9611	11.510
10.803	112.44	97.0235	3.9611	11.488
10.828	112.41	97.0231	3.9611	11.466
10.853	112.38	97.0227	3.9610	11.445
10.878	112.35	97.0223	3.9610	11.425
10.903	112.32	97.0218	3.9610	11.405
10.928	112.29	97.0212	3.9610	11.381
10.953	112.26	97.0208	3.9610	11.355
10.978	112.23	97.0205	3.9610	11.329
11.003	112.21	97.0203	3.9609	11.304
11.028	112.18	97.0201	3.9609	11.283
11.053	112.16	97.0199	3.9609	11.262
11.078	112.14	97.0196	3.9609	11.240
11.103	112.12	97.0193	3.9609	11.216
11.128	112.10	97.0191	3.9609	11.189
11.153	112.08	97.0189	3.9609	11.163
11.178	112.06	97.0187	3.9609	11.138
11.203	112.05	97.0184	3.9609	11.115
11.228	112.03	97.0181	3.9609	11.093
11.253	112.02	97.0178	3.9608	11.071
11.278	112.01	97.0176	3.9608	11.048
11.303	111.99	97.0173	3.9608	11.025
11.328	111.98	97.0171	3.9608	11.002
11.353	111.98	97.0169	3.9608	10.981
[...]
118.803	949.66	-1.1322	-0.0462	96.609
118.812	949.66	-1.1323	-0.0462	96.618
118.820	949.66	-1.1324	-0.0462	96.627
118.828	949.66	-1.1325	-0.0462	96.635
118.837	949.66	-1.1326	-0.0462	96.643
118.845	949.66	-1.1327	-0.0462	96.651
118.853	949.66	-1.1327	-0.0462	96.659
118.862	949.66	-1.1328	-0.0462	96.667
118.870	949.66	-1.1329	-0.0463	96.675
118.878	949.66	-1.1329	-0.0463	96.684
118.887	949.66	-1.1330	-0.0463	96.693
118.895	949.66	-1.1330	-0.0463	96.702
118.903	949.66	-1.1331	-0.0463	96.711
118.912	949.66	-1.1331	-0.0463	96.721
118.920	949.66	-1.1332	-0.0463	96.729
118.928	949.66	-1.1332	-0.0463	96.737
118.937	949.66	-1.1333	-0.0463	96.743
118.945	949.66	-1.1333	-0.0463	96.750
118.953	949.66	-1.1333	-0.0463	96.756
118.962	949.66	-1.1334	-0.0463	96.762
118.970	949.67	-1.1335	-0.0463	96.768
118.978	949.67	-1.1335	-0.0463	96.773
118.987	949.67	-1.1336	-0.0463	96.779
118.995	949.67	-1.1336	-0.0463	96.784
119.003	949.67	-1.1337	-0.0463	96.790
119.012	949.67	-1.1337	-0.0463	96.796
119.020	949.67	-1.1338	-0.0463	96.802
119.028	949.67	-1.1338	-0.0463	96.808
119.037	949.67	-1.1339	-0.0463	96.814
119.045	949.67	-1.1339	-0.0463	96.819
119.053	949.67	-1.1340	-0.0463	96.825
119.062	949.67	-1.1340	-0.0463	96.832
119.070	949.67	-1.1341	-0.0463	96.839
119.078	949.67	-1.1342	-0.0463	96.846
119.087	949.67	-1.1343	-0.0463	96.852
119.095	949.67	-1.1344	-0.0463	96.859
119.103	949.67	-1.1345	-0.0463	96.865
119.112	949.67	-1.1346	-0.0463	96.872
119.120	949.67	-1.1347	-0.0463	96.879
119.128	949.67	-1.1348	-0.0463	96.886
119.137	949.67	-1.1348	-0.0463	96.893
119.145	949.67	-1.1349	-0.0463	96.900
119.153	949.67	-1.1350	-0.0463	96.906
119.162	949.67	-1.1351	-0.0463	96.913
119.170	949.68	-1.1352	-0.0463	96.920
119.178	949.68	-1.1352	-0.0463	96.928
119.187	949.68	-1.1353	-0.0463	96.935
119.195	949.68	-1.1354	-0.0464	96.943
119.203	949.68	-1.1354	-0.0464	96.951
119.212	949.68	-1.1355	-0.0464	96.959
119.220	949.68	-1.1356	-0.0464	96.966
119.228	949.68	-1.1356	-0.0464	96.973
119.237	949.68	-1.1357	-0.0464	96.980
119.245	949.68	-1.1358	-0.0464	96.987
119.253	949.68	-1.1358	-0.0464	96.994
119.262	949.68	-1.1359	-0.0464	97.000
119.270	949.68	-1.1360	-0.0464	97.007
119.278	949.68	-1.1360	-0.0464	97.014
119.287	949.68	-1.1361	-0.0464	97.022
119.295	949.68	-1.1361	-0.0464	97.031
119.303	949.68	-1.1362	-0.0464	97.041
119.312	949.68	-1.1363	-0.0464	97.049
119.320	949.68	-1.1363	-0.0464	97.058
119.328	949.68	-1.1364	-0.0464	97.067
119.337	949.68	-1.1365	-0.0464	97.077
119.345	949.68	-1.1366	-0.0464	97.086
119.353	949.68	-1.1366	-0.0464	97.094
119.362	949.68	-1.1367	-0.0464	97.101
119.370	949.68	-1.1368	-0.0464	97.107
119.378	949.69	-1.1368	-0.0464	97.112
119.387	949.69	-1.1369	-0.0464	97.118
119.395	949.69	-1.1369	-0.0464	97.125
119.403	949.69	-1.1369	-0.0464	97.131
119.412	949.69	-1.1370	-0.0464	97.136
119.420	949.69	-1.1370	-0.0464	97.141
119.428	949.69	-1.1371	-0.0464	97.146
119.437	949.69	-1.1371	-0.0464	97.151
119.445	949.69	-1.1372	-0.0464	97.156
119.453	949.69	-1.1372	-0.0464	97.161
119.462	949.69	-1.1373	-0.0464	97.166
119.470	949.69	-1.1373	-0.0464	97.170
119.478	949.69	-1.1374	-0.0464	97.175
119.487	949.69	-1.1374	-0.0464	97.181
119.495	949.69	-1.1375	-0.0464	97.188
119.503	949.69	-1.1375	-0.0464	97.195
119.512	949.69	-1.1376	-0.0464	97.203
119.520	949.69	-1.1376	-0.0464	97.211
119.528	949.69	-1.1377	-0.0464	97.219
119.537	949.69	-1.1378	-0.0465	97.226
119.545	949.69	-1.1378	-0.0465	97.233
119.553	949.69	-1.1379	-0.0465	97.241
119.562	949.69	-1.1380	-0.0465	97.247
119.570	949.69	-1.1381	-0.0465	97.254
119.578	949.69	-1.1382	-0.0465	97.260
119.587	949.69	-1.1383	-0.0465	97.265
119.595	949.69	-1.1384	-0.0465	97.270
119.603	949.69	-1.1385	-0.0465	97.275
119.612	949.69	-1.1386	-0.0465	97.280
119.620	949.70	-1.1387	-0.0465	97.285
119.628	949.70	-1.1387	-0.0465	97.291
119.637	949.70	-1.1388	-0.0465	97.296
119.645	949.70	-1.1389	-0.0465	97.301
119.653	949.70	-1.1390	-0.0465	97.307
119.662	949.70	-1.1391	-0.0465	97.312
119.670	949.70	-1.1392	-0.0465	97.317
119.678	949.70	-1.1392	-0.0465	97.322
119.687	949.70	-1.1393	-0.0465	97.326
119.695	949.70	-1.1394	-0.0465	97.331
119.703	949.70	-1.1395	-0.0465	97.336
119.712	949.70	-1.1395	-0.0465	97.341
119.720	949.70	-1.1396	-0.0465	97.345
119.728	949.70	-1.1396	-0.0465	97.350
119.737	949.70	-1.1397	-0.0465	97.355
119.745	949.70	-1.1397	-0.0465	97.360
119.753	949.70	-1.1398	-0.0465	97.364
119.762	949.70	-1.1398	-0.0465	97.369
119.770	949.70	-1.1398	-0.0465	97.373
119.778	949.70	-1.1399	-0.0465	97.378
119.787	949.70	-1.1399	-0.0465	97.382
119.795	949.70	-1.1399	-0.0465	97.387
119.803	949.70	-1.1399	-0.0465	97.391
119.812	949.70	-1.1400	-0.0465	97.396
119.820	949.70	-1.1400	-0.0465	97.401
119.828	949.70	-1.1400	-0.0465	97.406
119.837	949.71	-1.1401	-0.0465	97.410
119.845	949.71	-1.1401	-0.0465	97.415
119.853	949.71	-1.1402	-0.0465	97.420
119.862	949.71	-1.1402	-0.0465	97.424
119.870	949.71	-1.1403	-0.0466	97.428
119.878	949.71	-1.1403	-0.0466	97.432
119.887	949.71	-1.1404	-0.0466	97.436
119.895	949.71	-1.1405	-0.0466	97.440
119.903	949.71	-1.1405	-0.0466	97.443
119.912	949.71	-1.1406	-0.0466	97.446
119.920	949.71	-1.1406	-0.0466	97.450
119.928	949.71	-1.1407	-0.0466	97.453
119.937	949.71	-1.1408	-0.0466	97.457
119.945	949.71	-1.1409	-0.0466	97.462
119.953	949.71	-1.1410	-0.0466	97.466
119.962	949.71	-1.1410	-0.0466	97.470
119.970	949.71	-1.1411	-0.0466	97.475
119.978	949.71	-1.1412	-0.0466	97.480
119.987	949.71	-1.1412	-0.0466	97.485
119.995	949.71	-1.1413	-0.0466	97.490
120.003	949.71	-1.1414	-0.0466	97.495
120.012	949.71	-1.1415	-0.0466	97.501
120.020	949.71	-1.1416	-0.0466	97.506
120.028	949.71	-1.1416	-0.0466	97.511
120.037	949.71	-1.1417	-0.0466	97.516
120.045	949.71	-1.1418	-0.0466	97.520
120.053	949.71	-1.1419	-0.0466	97.524
120.062	949.71	-1.1420	-0.0466	97.529
120.070	949.71	-1.1421	-0.0466	97.534
120.078	949.71	-1.1422	-0.0466	97.538
120.087	949.71	-1.1423	-0.0466	97.543
120.095	949.71	-1.1424	-0.0466	97.548
120.103	949.71	-1.1425	-0.0466	97.552
120.112	949.71	-1.1426	-0.0466	97.557
120.120	949.71	-1.1426	-0.0466	97.562
120.128	949.71	-1.1427	-0.0467	97.567
120.137	949.71	-1.1428	-0.0467	97.573
120.145	949.71	-1.1428	-0.0467	97.579
120.153	949.71	-1.1429	-0.0467	97.586
120.162	949.72	-1.1430	-0.0467	97.591
120.170	949.72	-1.1430	-0.0467	97.596
120.178	949.72	-1.1431	-0.0467	97.601
120.187	949.72	-1.1432	-0.0467	97.606
120.195	949.72	-1.1433	-0.0467	97.611
120.203	949.72	-1.1433	-0.0467	97.616
120.212	949.72	-1.1434	-0.0467	97.621
120.220	949.72	-1.1435	-0.0467	97.626
120.228	949.72	-1.1435	-0.0467	97.630
120.237	949.72	-1.1436	-0.0467	97.633
120.245	949.72	-1.1437	-0.0467	97.637
120.253	949.72	-1.1437	-0.0467	97.641
120.262	949.72	-1.1438	-0.0467	97.645
120.270	949.72	-1.1438	-0.0467	97.650
120.278	949.72	-1.1438	-0.0467	97.654
120.287	949.72	-1.1439	-0.0467	97.658
120.295	949.72	-1.1439	-0.0467	97.662
120.303	949.72	-1.1439	-0.0467	97.667
120.312	949.72	-1.1440	-0.0467	97.671
120.320	949.72	-1.1440	-0.0467	97.675
120.328	949.72	-1.1441	-0.0467	97.680
120.337	949.72	-1.1441	-0.0467	97.684
120.345	949.72	-1.1442	-0.0467	97.689
120.353	949.72	-1.1442	-0.0467	97.693
120.362	949.72	-1.1443	-0.0467	97.698
120.370	949.72	-1.1443	-0.0467	97.702
120.378	949.72	-1.1444	-0.0467	97.705
120.387	949.72	-1.1445	-0.0467	97.709
120.395	949.72	-1.1445	-0.0467	97.713
120.403	949.72	-1.1446	-0.0467	97.716
120.412	949.72	-1.1447	-0.0467	97.719
120.420	949.72	-1.1447	-0.0467	97.722
120.428	949.72	-1.1448	-0.0467	97.725
120.437	949.72	-1.1449	-0.0467	97.727
120.445	949.72	-1.1449	-0.0467	97.730
120.453	949.72	-1.1450	-0.0467	97.732
120.462	949.72	-1.1450	-0.0467	97.735
120.470	949.72	-1.1451	-0.0467	97.738
120.478	949.72	-1.1452	-0.0468	97.741
120.487	949.72	-1.1453	-0.0468	97.744
120.495	949.72	-1.1453	-0.0468	97.747
120.503	949.72	-1.1454	-0.0468	97.751
120.512	949.72	-1.1455	-0.0468	97.754
120.520	949.73	-1.1456	-0.0468	97.757
120.528	949.73	-1.1457	-0.0468	97.761
120.537	949.73	-1.1458	-0.0468	97.764
120.545	949.73	-1.1459	-0.0468	97.768
120.553	949.73	-1.1460	-0.0468	97.771
120.562	949.73	-1.1461	-0.0468	97.775
120.570	949.73	-1.1461	-0.0468	97.778
120.578	949.73	-1.1462	-0.0468	97.782
120.587	949.73	-1.1463	-0.0468	97.786
120.595	949.73	-1.1464	-0.0468	97.789
120.603	949.73	-1.1464	-0.0468	97.794
120.612	949.73	-1.1465	-0.0468	97.798
120.620	949.73	-1.1466	-0.0468	97.803
120.628	949.73	-1.1466	-0.0468	97.809
120.637	949.73	-1.1467	-0.0468	97.815
120.645	949.73	-1.1468	-0.0468	97.821
120.653	949.73	-1.1469	-0.0468	97.826
120.662	949.73	-1.1469	-0.0468	97.832
120.670	949.73	-1.1470	-0.0468	97.838
120.678	949.73	-1.1471	-0.0468	97.843
120.687	949.73	-1.1472	-0.0468	97.850
120.695	949.73	-1.1473	-0.0468	97.855
120.703	949.73	-1.1474	-0.0468	97.861
120.712	949.73	-1.1475	-0.0468	97.866
120.720	949.73	-1.1476	-0.0469	97.872
120.728	949.73	-1.1477	-0.0469	97.877
120.737	949.73	-1.1478	-0.0469	97.883
120.745	949.73	-1.1478	-0.0469	97.888
120.753	949.73	-1.1479	-0.0469	97.894
120.762	949.73	-1.1480	-0.0469	97.900
120.770	949.73	-1.1481	-0.0469	97.905
120.778	949.73	-1.1482	-0.0469	97.910
120.787	949.73	-1.1482	-0.0469	97.916
120.795	949.73	-1.1483	-0.0469	97.921
120.803	949.73	-1.1484	-0.0469	97.926
120.812	949.73	-1.1484	-0.0469	97.931
120.820	949.73	-1.1485	-0.0469	97.935
120.828	949.73	-1.1486	-0.0469	97.939
120.837	949.73	-1.1486	-0.0469	97.943
120.845	949.73	-1.1487	-0.0469	97.947
120.853	949.73	-1.1488	-0.0469	97.950
120.862	949.73	-1.1489	-0.0469	97.954
120.870	949.73	-1.1489	-0.0469	97.956
120.878	949.73	-1.1490	-0.0469	97.959
120.887	949.73	-1.1490	-0.0469	97.961
120.895	949.74	-1.1491	-0.0469	97.964
120.903	949.74	-1.1492	-0.0469	97.966
120.912	949.74	-1.1492	-0.0469	97.969
120.920	949.74	-1.1492	-0.0469	97.971
120.928	949.74	-1.1493	-0.0469	97.974
120.937	949.74	-1.1493	-0.0469	97.976
120.945	949.74	-1.1493	-0.0469	97.979
120.953	949.74	-1.1494	-0.0469	97.982
120.962	949.74	-1.1494	-0.0469	97.985
120.970	949.74	-1.1495	-0.0469	97.988
120.978	949.74	-1.1495	-0.0469	97.991
120.987	949.74	-1.1496	-0.0469	97.995
120.995	949.74	-1.1496	-0.0469	97.998
121.003	949.74	-1.1497	-0.0469	98.001
121.012	949.74	-1.1497	-0.0469	98.005
121.020	949.74	-1.1498	-0.0469	98.008
121.028	949.74	-1.1498	-0.0469	98.012
121.037	949.74	-1.1499	-0.0469	98.015
121.045	949.74	-1.1499	-0.0469	98.019
121.053	949.74	-1.1500	-0.0469	98.023
121.062	949.74	-1.1500	-0.0470	98.028
121.070	949.74	-1.1501	-0.0470	98.032
121.078	949.74	-1.1501	-0.0470	98.036
121.087	949.74	-1.1502	-0.0470	98.041
121.095	949.74	-1.1503	-0.0470	98.045
121.103	949.74	-1.1504	-0.0470	98.050
121.112	949.74	-1.1504	-0.0470	98.055
121.120	949.74	-1.1505	-0.0470	98.059
121.128	949.74	-1.1506	-0.0470	98.063
121.137	949.74	-1.1507	-0.0470	98.067
121.145	949.74	-1.1509	-0.0470	98.070
121.153	949.74	-1.1510	-0.0470	98.074
121.162	949.74	-1.1511	-0.0470	98.077
121.170	949.74	-1.1512	-0.0470	98.080
121.178	949.74	-1.1513	-0.0470	98.083
121.187	949.74	-1.1514	-0.0470	98.085
121.195	949.74	-1.1515	-0.0470	98.088
121.203	949.74	-1.1516	-0.0470	98.090
121.212	949.74	-1.1517	-0.0470	98.092
121.220	949.74	-1.1518	-0.0470	98.094
121.228	949.74	-1.1518	-0.0470	98.096
121.237	949.74	-1.1519	-0.0470	98.099
121.245	949.74	-1.1520	-0.0470	98.101
121.253	949.74	-1.1521	-0.0470	98.104
121.262	949.74	-1.1522	-0.0470	98.106
121.270	949.74	-1.1522	-0.0470	98.109
121.278	949.74	-1.1523	-0.0470	98.111
121.287	949.74	-1.1524	-0.0470	98.114
121.295	949.74	-1.1524	-0.0470	98.116
121.303	949.74	-1.1524	-0.0470	98.119
121.312	949.74	-1.1525	-0.0471	98.122
121.320	949.74	-1.1525	-0.0471	98.124
121.328	949.75	-1.1525	-0.0471	98.127
121.337	949.75	-1.1525	-0.0471	98.130
121.345	949.75	-1.1526	-0.0471	98.133
121.353	949.75	-1.1526	-0.0471	98.136
121.362	949.75	-1.1526	-0.0471	98.139
121.370	949.75	-1.1527	-0.0471	98.142
121.378	949.75	-1.1527	-0.0471	98.144
121.387	949.75	-1.1528	-0.0471	98.147
121.395	949.75	-1.1528	-0.0471	98.150
121.403	949.75	-1.1529	-0.0471	98.153
121.412	949.75	-1.1529	-0.0471	98.155
121.420	949.75	-1.1530	-0.0471	98.157
121.428	949.75	-1.1531	-0.0471	98.160
121.437	949.75	-1.1531	-0.0471	98.162
121.445	949.75	-1.1532	-0.0471	98.165
121.453	949.75	-1.1533	-0.0471	98.168
121.462	949.75	-1.1534	-0.0471	98.170
121.470	949.75	-1.1535	-0.0471	98.173
121.478	949.75	-1.1535	-0.0471	98.176
121.487	949.75	-1.1536	-0.0471	98.179
121.495	949.75	-1.1536	-0.0471	98.182
121.503	949.75	-1.1537	-0.0471	98.185
121.512	949.75	-1.1537	-0.0471	98.188
121.520	949.75	-1.1538	-0.0471	98.190
121.528	949.75	-1.1538	-0.0471	98.193
121.537	949.75	-1.1539	-0.0471	98.195
121.545	949.75	-1.1539	-0.0471	98.198
121.553	949.75	-1.1539	-0.0471	98.201
121.562	949.75	-1.1540	-0.0471	98.203
121.570	949.75	-1.1541	-0.0471	98.206
121.578	949.75	-1.1542	-0.0471	98.209
121.587	949.75	-1.1542	-0.0471	98.212
121.595	949.75	-1.1543	-0.0471	98.215
121.603	949.75	-1.1544	-0.0471	98.218
121.612	949.75	-1.1545	-0.0471	98.221
121.620	949.75	-1.1545	-0.0471	98.225
121.628	949.75	-1.1546	-0.0471	98.228
121.637	949.75	-1.1547	-0.0471	98.231
121.645	949.75	-1.1548	-0.0471	98.234
121.653	949.75	-1.1549	-0.0471	98.237
121.662	949.75	-1.1549	-0.0472	98.240
121.670	949.75	-1.1550	-0.0472	98.242
121.678	949.75	-1.1551	-0.0472	98.245
121.687	949.75	-1.1551	-0.0472	98.248
121.695	949.75	-1.1552	-0.0472	98.250
121.703	949.75	-1.1553	-0.0472	98.253
121.712	949.75	-1.1554	-0.0472	98.255
121.720	949.75	-1.1554	-0.0472	98.257
121.728	949.75	-1.1555	-0.0472	98.260
121.737	949.75	-1.1556	-0.0472	98.262
121.745	949.75	-1.1557	-0.0472	98.265
121.753	949.75	-1.1558	-0.0472	98.267
121.762	949.75	-1.1558	-0.0472	98.270
121.770	949.75	-1.1559	-0.0472	98.272
121.778	949.75	-1.1560	-0.0472	98.275
121.787	949.75	-1.1560	-0.0472	98.278
121.795	949.75	-1.1561	-0.0472	98.281
121.803	949.75	-1.1561	-0.0472	98.284
121.812	949.75	-1.1561	-0.0472	98.287
121.820	949.75	-1.1561	-0.0472	98.291
121.828	949.75	-1.1561	-0.0472	98.294
121.837	949.75	-1.1561	-0.0472	98.298
121.845	949.75	-1.1562	-0.0472	98.301
121.853	949.75	-1.1562	-0.0472	98.304
121.862	949.76	-1.1562	-0.0472	98.308
121.870	949.76	-1.1562	-0.0472	98.311
121.878	949.76	-1.1562	-0.0472	98.315
121.887	949.76	-1.1562	-0.0472	98.318
121.895	949.76	-1.1563	-0.0472	98.321
121.903	949.76	-1.1563	-0.0472	98.324
121.912	949.76	-1.1563	-0.0472	98.327
121.920	949.76	-1.1564	-0.0472	98.330
121.928	949.76	-1.1564	-0.0472	98.333
121.937	949.76	-1.1565	-0.0472	98.335
121.945	949.76	-1.1565	-0.0472	98.337
121.953	949.76	-1.1565	-0.0472	98.340
121.962	949.76	-1.1565	-0.0472	98.342
121.970	949.76	-1.1566	-0.0472	98.344
121.978	949.76	-1.1566	-0.0472	98.346
121.987	949.76	-1.1566	-0.0472	98.348
121.995	949.76	-1.1566	-0.0472	98.350
122.003	949.76	-1.1567	-0.0472	98.353
122.012	949.76	-1.1567	-0.0472	98.356
122.020	949.76	-1.1567	-0.0472	98.359
122.028	949.76	-1.1568	-0.0472	98.362
122.037	949.76	-1.1568	-0.0472	98.364
122.045	949.76	-1.1568	-0.0472	98.367
122.053	949.76	-1.1568	-0.0472	98.370
122.062	949.76	-1.1568	-0.0472	98.373
122.070	949.76	-1.1569	-0.0472	98.377
122.078	949.76	-1.1569	-0.0472	98.380
122.087	949.76	-1.1569	-0.0472	98.383
122.095	949.76	-1.1569	-0.0472	98.386
122.103	949.76	-1.1570	-0.0472	98.389
122.112	949.76	-1.1570	-0.0472	98.393
122.120	949.76	-1.1571	-0.0472	98.397
122.128	949.76	-1.1572	-0.0472	98.401
122.137	949.76	-1.1572	-0.0472	98.404
122.145	949.76	-1.1573	-0.0472	98.408
122.153	949.76	-1.1574	-0.0473	98.412
122.162	949.76	-1.1574	-0.0473	98.415
122.170	949.76	-1.1575	-0.0473	98.419
122.178	949.76	-1.1575	-0.0473	98.422
122.187	949.76	-1.1576	-0.0473	98.426
122.195	949.76	-1.1577	-0.0473	98.429
122.203	949.76	-1.1577	-0.0473	98.432
122.212	949.76	-1.1578	-0.0473	98.436
122.220	949.76	-1.1579	-0.0473	98.439
122.228	949.76	-1.1579	-0.0473	98.443
122.237	949.76	-1.1580	-0.0473	98.447
122.245	949.76	-1.1581	-0.0473	98.450
122.253	949.76	-1.1582	-0.0473	98.453
122.262	949.76	-1.1583	-0.0473	98.457
122.270	949.76	-1.1583	-0.0473	98.460
122.278	949.76	-1.1584	-0.0473	98.463
122.287	949.76	-1.1584	-0.0473	98.465
122.295	949.76	-1.1585	-0.0473	98.467
122.303	949.76	-1.1585	-0.0473	98.469
122.312	949.76	-1.1586	-0.0473	98.471
122.320	949.76	-1.1586	-0.0473	98.472
122.328	949.76	-1.1586	-0.0473	98.474
122.337	949.76	-1.1587	-0.0473	98.475
122.345	949.76	-1.1587	-0.0473	98.476
122.353	949.76	-1.1588	-0.0473	98.477
122.362	949.76	-1.1588	-0.0473	98.479
122.370	949.76	-1.1589	-0.0473	98.480
122.378	949.76	-1.1590	-0.0473	98.482
122.387	949.76	-1.1591	-0.0473	98.484
122.395	949.76	-1.1591	-0.0473	98.485
122.403	949.76	-1.1592	-0.0473	98.487
122.412	949.76	-1.1593	-0.0473	98.489
122.420	949.76	-1.1593	-0.0473	98.491
122.428	949.76	-1.1594	-0.0473	98.493
122.437	949.76	-1.1595	-0.0473	98.495
122.445	949.76	-1.1595	-0.0473	98.496
122.453	949.76	-1.1596	-0.0473	98.498
122.462	949.76	-1.1596	-0.0473	98.500
122.470	949.76	-1.1597	-0.0473	98.502
122.478	949.76	-1.1598	-0.0473	98.503
122.487	949.76	-1.1598	-0.0474	98.505
122.495	949.76	-1.1599	-0.0474	98.507
122.503	949.76	-1.1600	-0.0474	98.509
122.512	949.76	-1.1600	-0.0474	98.511
122.520	949.76	-1.1601	-0.0474	98.513
122.528	949.77	-1.1602	-0.0474	98.515
122.537	949.77	-1.1602	-0.0474	98.518
122.545	949.77	-1.1603	-0.0474	98.520
122.553	949.77	-1.1603	-0.0474	98.523
122.562	949.77	-1.1603	-0.0474	98.525
122.570	949.77	-1.1604	-0.0474	98.527
122.578	949.77	-1.1604	-0.0474	98.529
122.587	949.77	-1.1605	-0.0474	98.531
122.595	949.76	-1.1605	-0.0474	98.533
122.603	949.76	-1.1605	-0.0474	98.534
122.612	949.76	-1.1606	-0.0474	98.535
122.620	949.76	-1.1606	-0.0474	98.536
122.628	949.76	-1.1607	-0.0474	98.538
122.637	949.77	-1.1608	-0.0474	98.539
122.645	949.77	-1.1609	-0.0474	98.540
122.653	949.77	-1.1609	-0.0474	98.541
122.662	949.77	-1.1610	-0.0474	98.542
122.670	949.77	-1.1611	-0.0474	98.544
122.678	949.77	-1.1611	-0.0474	98.545
122.687	949.77	-1.1612	-0.0474	98.547
122.695	949.77	-1.1612	-0.0474	98.549
122.703	949.77	-1.1613	-0.0474	98.552
122.712	949.77	-1.1613	-0.0474	98.554
122.720	949.77	-1.1613	-0.0474	98.556
122.728	949.77	-1.1613	-0.0474	98.559
122.737	949.77	-1.1614	-0.0474	98.561
122.745	949.77	-1.1614	-0.0474	98.564
122.753	949.77	-1.1614	-0.0474	98.566
122.762	949.77	-1.1615	-0.0474	98.568
122.770	949.77	-1.1615	-0.0474	98.570
122.778	949.77	-1.1615	-0.0474	98.572
122.787	949.77	-1.1616	-0.0474	98.574
122.795	949.77	-1.1616	-0.0474	98.576
122.803	949.77	-1.1617	-0.0474	98.578
122.812	949.77	-1.1618	-0.0474	98.580
122.820	949.77	-1.1618	-0.0474	98.583
122.828	949.77	-1.1619	-0.0474	98.586
122.837	949.77	-1.1620	-0.0474	98.589
122.845	949.77	-1.1620	-0.0474	98.592
122.853	949.77	-1.1621	-0.0474	98.595
122.862	949.77	-1.1622	-0.0474	98.599
122.870	949.77	-1.1622	-0.0474	98.602
122.878	949.77	-1.1623	-0.0475	98.605
122.887	949.77	-1.1623	-0.0475	98.607
122.895	949.77	-1.1624	-0.0475	98.609
122.903	949.77	-1.1625	-0.0475	98.611
122.912	949.77	-1.1625	-0.0475	98.613
122.920	949.77	-1.1626	-0.0475	98.614
122.928	949.77	-1.1627	-0.0475	98.616
122.937	949.77	-1.1627	-0.0475	98.618
122.945	949.77	-1.1628	-0.0475	98.620
122.953	949.77	-1.1629	-0.0475	98.622
122.962	949.77	-1.1630	-0.0475	98.625
122.970	949.77	-1.1631	-0.0475	98.628
122.978	949.77	-1.1632	-0.0475	98.631
122.987	949.77	-1.1633	-0.0475	98.634
122.995	949.77	-1.1634	-0.0475	98.637
123.003	949.77	-1.1634	-0.0475	98.641
123.012	949.77	-1.1635	-0.0475	98.645
123.020	949.77	-1.1636	-0.0475	98.647
123.028	949.77	-1.1636	-0.0475	98.650
123.037	949.77	-1.1637	-0.0475	98.652
123.045	949.77	-1.1638	-0.0475	98.655
123.053	949.77	-1.1639	-0.0475	98.657
123.062	949.77	-1.1640	-0.0475	98.659
123.070	949.77	-1.1641	-0.0475	98.661
123.078	949.77	-1.1641	-0.0475	98.663
123.087	949.77	-1.1642	-0.0475	98.665
123.095	949.77	-1.1643	-0.0475	98.667
123.103	949.77	-1.1644	-0.0475	98.670
123.112	949.77	-1.1645	-0.0475	98.672
123.120	949.77	-1.1646	-0.0475	98.674
123.128	949.77	-1.1647	-0.0475	98.677
123.137	949.77	-1.1648	-0.0476	98.680
123.145	949.77	-1.1649	-0.0476	98.683
123.153	949.77	-1.1650	-0.0476	98.686
123.162		-1.1651	-0.0476
123.170		-1.1652	-0.0476
123.178		-1.1652	-0.0476
123.187		-1.1653	-0.0476
123.195		-1.1654	-0.0476