File: PSO Kinetics/data/softwood-5Kmin_2.txt
Filename	softwood-5Kmin_2
Instrument name	0650-0369 (192.168.1.2)
Operator	ca527
rundate	1/10/2023
Sample name	softwood-5Kmin_2
proceduresegments	Select Gas: Gas 1 ; Ramp 10.00 °C/min to 110.00 °C; Isothermal 30.0 min; Ramp 5.00 °C/min to 900.00 °C; Isothermal 30.0 min; Select Gas: Gas 2 ; Ramp 10.00 °C/min to 950.00 °C; Isothermal 10.0 min; Data Off ; Equilibrate 30.00 °C
[step]
Ramp 10.00 °C/min to 110.00 °C
Time	Temperature	Weight	Weight	Heat Flow
min	°C	%	mg	mW
0.003		100.0229	4.2635
0.012		100.0539	4.2648
0.020		100.0766	4.2658
0.028		100.0966	4.2666
0.037		100.1158	4.2674
0.045	22.56	100.1340	4.2682	-26.801
0.053	22.60	100.1500	4.2689	-26.757
0.062	22.63	100.1628	4.2695	-26.719
0.070	22.67	100.1727	4.2699	-26.683
0.078	22.71	100.1800	4.2702	-26.648
0.087	22.74	100.1848	4.2704	-26.616
0.095	22.78	100.1885	4.2705	-26.584
0.103	22.81	100.1919	4.2707	-26.551
0.112	22.85	100.1950	4.2708	-26.521
0.120	22.88	100.1977	4.2709	-26.493
0.128	22.92	100.2002	4.2710	-26.465
0.137	22.95	100.2023	4.2711	-26.438
0.145	22.99	100.2042	4.2712	-26.411
0.153	23.02	100.2058	4.2713	-26.385
0.162	23.06	100.2071	4.2713	-26.360
0.170	23.09	100.2082	4.2714	-26.336
0.178	23.13	100.2091	4.2714	-26.312
0.187	23.16	100.2098	4.2715	-26.288
0.195	23.20	100.2103	4.2715	-26.264
0.203	23.23	100.2106	4.2715	-26.240
0.212	23.27	100.2107	4.2715	-26.217
0.220	23.30	100.2106	4.2715	-26.194
0.228	23.33	100.2103	4.2715	-26.172
0.237	23.37	100.2098	4.2715	-26.149
0.245	23.40	100.2091	4.2714	-26.128
0.253	23.43	100.2082	4.2714	-26.105
0.262	23.47	100.2072	4.2713	-26.083
0.270	23.50	100.2059	4.2713	-26.063
0.278	23.53	100.2044	4.2712	-26.042
0.287	23.56	100.2027	4.2712	-26.021
0.295	23.60	100.2009	4.2711	-26.000
0.303	23.63	100.1988	4.2710	-25.981
0.312	23.66	100.1966	4.2709	-25.962
0.320	23.70	100.1942	4.2708	-25.942
0.328	23.73	100.1917	4.2707	-25.923
0.337	23.76	100.1889	4.2706	-25.905
0.345	23.80	100.1860	4.2704	-25.888
0.353	23.83	100.1829	4.2703	-25.870
0.362	23.86	100.1797	4.2702	-25.853
0.370	23.90	100.1764	4.2700	-25.836
0.378	23.93	100.1729	4.2699	-25.820
0.387	23.96	100.1692	4.2697	-25.802
0.395	23.99	100.1654	4.2696	-25.784
0.403	24.03	100.1615	4.2694	-25.767
0.412	24.06	100.1575	4.2692	-25.750
0.420	24.09	100.1533	4.2690	-25.733
0.428	24.13	100.1490	4.2689	-25.716
0.437	24.16	100.1446	4.2687	-25.699
0.445	24.19	100.1400	4.2685	-25.684
0.453	24.23	100.1353	4.2683	-25.669
0.462	24.26	100.1305	4.2681	-25.654
0.470	24.29	100.1255	4.2679	-25.640
0.478	24.33	100.1204	4.2676	-25.628
0.487	24.36	100.1152	4.2674	-25.615
0.495	24.40	100.1097	4.2672	-25.603
0.503	24.43	100.1042	4.2670	-25.591
0.512	24.47	100.0985	4.2667	-25.579
0.520	24.51	100.0927	4.2665	-25.568
0.528	24.54	100.0867	4.2662	-25.557
0.537	24.58	100.0806	4.2659	-25.546
0.545	24.61	100.0744	4.2657	-25.535
0.553	24.65	100.0681	4.2654	-25.525
0.562	24.69	100.0616	4.2651	-25.515
0.570	24.73	100.0551	4.2649	-25.506
0.578	24.77	100.0484	4.2646	-25.497
0.587	24.80	100.0417	4.2643	-25.488
0.595	24.84	100.0349	4.2640	-25.479
0.603	24.88	100.0279	4.2637	-25.471
0.612	24.92	100.0209	4.2634	-25.463
0.620	24.96	100.0139	4.2631	-25.456
0.628	25.00	100.0067	4.2628	-25.450
0.637	25.04	99.9995	4.2625	-25.444
0.645	25.09	99.9923	4.2622	-25.437
0.653	25.13	99.9849	4.2619	-25.431
0.662	25.17	99.9775	4.2616	-25.425
0.670	25.21	99.9701	4.2612	-25.420
0.678	25.26	99.9626	4.2609	-25.416
0.687	25.30	99.9551	4.2606	-25.411
0.695	25.34	99.9475	4.2603	-25.406
0.703	25.39	99.9399	4.2600	-25.401
0.712	25.43	99.9323	4.2596	-25.396
0.720	25.48	99.9246	4.2593	-25.391
0.728	25.52	99.9169	4.2590	-25.387
0.737	25.57	99.9092	4.2586	-25.383
0.745	25.61	99.9015	4.2583	-25.379
0.753	25.66	99.8938	4.2580	-25.375
0.762	25.71	99.8861	4.2577	-25.370
0.770	25.75	99.8784	4.2573	-25.367
0.778	25.80	99.8708	4.2570	-25.364
0.787	25.85	99.8631	4.2567	-25.361
0.795	25.90	99.8555	4.2564	-25.359
0.803	25.95	99.8478	4.2560	-25.356
0.812	26.00	99.8402	4.2557	-25.354
0.820	26.05	99.8327	4.2554	-25.352
0.828	26.10	99.8251	4.2551	-25.351
0.837	26.15	99.8176	4.2547	-25.350
0.845	26.20	99.8102	4.2544	-25.348
0.853	26.25	99.8028	4.2541	-25.346
0.862	26.30	99.7954	4.2538	-25.344
0.870	26.36	99.7881	4.2535	-25.342
0.878	26.41	99.7808	4.2532	-25.339
0.887	26.46	99.7735	4.2529	-25.336
0.895	26.52	99.7663	4.2526	-25.332
0.903	26.57	99.7591	4.2522	-25.328
0.912	26.63	99.7520	4.2519	-25.324
0.920	26.68	99.7450	4.2516	-25.320
0.928	26.74	99.7380	4.2513	-25.315
0.937	26.79	99.7311	4.2510	-25.310
0.945	26.85	99.7242	4.2508	-25.304
0.953	26.91	99.7174	4.2505	-25.298
0.962	26.96	99.7106	4.2502	-25.291
0.970	27.02	99.7040	4.2499	-25.285
0.978	27.08	99.6973	4.2496	-25.278
0.987	27.14	99.6908	4.2493	-25.271
0.995	27.20	99.6843	4.2491	-25.263
1.003	27.26	99.6778	4.2488	-25.253
1.012	27.32	99.6714	4.2485	-25.241
1.020	27.38	99.6650	4.2482	-25.230
1.028	27.44	99.6587	4.2480	-25.219
1.037	27.50	99.6524	4.2477	-25.208
1.045	27.56	99.6462	4.2474	-25.196
1.053	27.62	99.6400	4.2472	-25.183
1.062	27.69	99.6338	4.2469	-25.168
1.070	27.75	99.6277	4.2466	-25.153
1.078	27.82	99.6216	4.2464	-25.138
1.087	27.88	99.6156	4.2461	-25.123
1.095	27.94	99.6096	4.2459	-25.107
1.103	28.01	99.6036	4.2456	-25.091
1.112	28.08	99.5977	4.2454	-25.073
1.120	28.14	99.5918	4.2451	-25.053
1.128	28.21	99.5860	4.2449	-25.033
1.137	28.28	99.5801	4.2446	-25.013
1.145	28.34	99.5743	4.2444	-24.991
1.153	28.41	99.5685	4.2441	-24.969
1.162	28.48	99.5628	4.2439	-24.945
1.170	28.55	99.5570	4.2436	-24.921
1.178	28.62	99.5513	4.2434	-24.896
1.187	28.69	99.5456	4.2431	-24.871
1.195	28.76	99.5399	4.2429	-24.846
1.203	28.83	99.5342	4.2427	-24.820
1.212	28.90	99.5284	4.2424	-24.792
1.220	28.97	99.5227	4.2422	-24.764
1.228	29.04	99.5170	4.2419	-24.734
1.237	29.11	99.5112	4.2417	-24.703
1.245	29.19	99.5056	4.2414	-24.671
1.253	29.26	99.4998	4.2412	-24.640
1.262	29.33	99.4941	4.2409	-24.607
1.270	29.41	99.4883	4.2407	-24.574
1.278	29.48	99.4826	4.2405	-24.539
1.287	29.55	99.4768	4.2402	-24.505
1.295	29.63	99.4711	4.2400	-24.469
1.303	29.70	99.4653	4.2397	-24.434
1.312	29.78	99.4595	4.2395	-24.398
1.320	29.86	99.4537	4.2392	-24.362
1.328	29.93	99.4478	4.2390	-24.324
1.337	30.01	99.4420	4.2387	-24.285
1.345	30.09	99.4361	4.2385	-24.247
1.353	30.16	99.4302	4.2382	-24.206
1.362	30.24	99.4243	4.2380	-24.165
1.370	30.32	99.4183	4.2377	-24.123
1.378	30.40	99.4124	4.2375	-24.081
1.387	30.48	99.4064	4.2372	-24.039
1.395	30.56	99.4004	4.2370	-23.995
1.403	30.64	99.3943	4.2367	-23.952
1.412	30.71	99.3883	4.2364	-23.908
1.420	30.79	99.3822	4.2362	-23.865
1.428	30.87	99.3761	4.2359	-23.820
1.437	30.96	99.3700	4.2357	-23.775
1.445	31.04	99.3639	4.2354	-23.729
1.453	31.12	99.3577	4.2351	-23.683
1.462	31.20	99.3516	4.2349	-23.636
1.470	31.28	99.3454	4.2346	-23.588
1.478	31.36	99.3392	4.2343	-23.539
1.487	31.45	99.3329	4.2341	-23.488
1.495	31.53	99.3266	4.2338	-23.438
1.503	31.61	99.3203	4.2335	-23.387
1.512	31.70	99.3140	4.2333	-23.336
1.520	31.78	99.3076	4.2330	-23.284
1.528	31.86	99.3012	4.2327	-23.232
1.537	31.95	99.2948	4.2325	-23.179
1.545	32.03	99.2884	4.2322	-23.125
1.553	32.12	99.2819	4.2319	-23.070
1.562	32.20	99.2754	4.2316	-23.016
1.570	32.29	99.2689	4.2314	-22.963
1.578	32.37	99.2624	4.2311	-22.908
1.587	32.46	99.2559	4.2308	-22.853
1.595	32.55	99.2494	4.2305	-22.797
1.603	32.63	99.2428	4.2302	-22.741
1.612	32.72	99.2362	4.2300	-22.683
1.620	32.80	99.2296	4.2297	-22.625
1.628	32.89	99.2229	4.2294	-22.567
1.637	32.98	99.2163	4.2291	-22.510
1.645	33.07	99.2096	4.2288	-22.452
1.653	33.15	99.2029	4.2285	-22.392
1.662	33.24	99.1961	4.2282	-22.333
1.670	33.33	99.1893	4.2280	-22.273
1.678	33.42	99.1825	4.2277	-22.213
1.687	33.50	99.1757	4.2274	-22.152
1.695	33.59	99.1689	4.2271	-22.091
1.703	33.68	99.1620	4.2268	-22.031
1.712	33.77	99.1551	4.2265	-21.970
1.720	33.86	99.1482	4.2262	-21.909
1.728	33.95	99.1413	4.2259	-21.847
1.737	34.04	99.1343	4.2256	-21.784
1.745	34.13	99.1273	4.2253	-21.722
1.753	34.22	99.1203	4.2250	-21.660
1.762	34.31	99.1132	4.2247	-21.599
1.770	34.40	99.1062	4.2244	-21.536
1.778	34.49	99.0991	4.2241	-21.474
1.787	34.58	99.0920	4.2238	-21.412
1.795	34.67	99.0849	4.2235	-21.349
1.803	34.76	99.0778	4.2232	-21.285
1.812	34.85	99.0706	4.2229	-21.220
1.820	34.94	99.0635	4.2226	-21.158
1.828	35.03	99.0563	4.2223	-21.094
1.837	35.12	99.0490	4.2220	-21.029
1.845	35.22	99.0418	4.2217	-20.963
1.853	35.31	99.0345	4.2214	-20.897
1.862	35.40	99.0272	4.2210	-20.832
1.870	35.49	99.0199	4.2207	-20.766
1.878	35.58	99.0126	4.2204	-20.700
1.887	35.67	99.0052	4.2201	-20.634
1.895	35.77	98.9978	4.2198	-20.569
1.903	35.86	98.9904	4.2195	-20.502
1.912	35.95	98.9830	4.2192	-20.435
1.920	36.04	98.9756	4.2188	-20.369
1.928	36.14	98.9682	4.2185	-20.303
1.937	36.23	98.9607	4.2182	-20.236
1.945	36.32	98.9532	4.2179	-20.169
1.953	36.41	98.9457	4.2176	-20.101
1.962	36.51	98.9382	4.2173	-20.033
1.970	36.60	98.9307	4.2169	-19.965
1.978	36.69	98.9231	4.2166	-19.897
1.987	36.78	98.9155	4.2163	-19.828
1.995	36.88	98.9079	4.2160	-19.760
2.003	36.97	98.9002	4.2156	-19.691
2.012	37.06	98.8926	4.2153	-19.622
2.020	37.16	98.8849	4.2150	-19.554
2.028	37.25	98.8771	4.2147	-19.485
2.037	37.34	98.8694	4.2143	-19.418
2.045	37.44	98.8616	4.2140	-19.350
2.053	37.53	98.8539	4.2137	-19.282
2.062	37.63	98.8461	4.2133	-19.213
2.070	37.72	98.8383	4.2130	-19.145
2.078	37.81	98.8304	4.2127	-19.076
2.087	37.91	98.8226	4.2123	-19.007
2.095	38.00	98.8147	4.2120	-18.938
2.103	38.10	98.8068	4.2117	-18.869
2.112	38.19	98.7989	4.2113	-18.800
2.120	38.28	98.7910	4.2110	-18.730
2.128	38.38	98.7830	4.2106	-18.660
2.137	38.47	98.7751	4.2103	-18.590
2.145	38.57	98.7671	4.2100	-18.520
2.153	38.66	98.7591	4.2096	-18.450
2.162	38.75	98.7511	4.2093	-18.381
2.170	38.85	98.7430	4.2089	-18.312
2.178	38.94	98.7350	4.2086	-18.242
2.187	39.04	98.7269	4.2082	-18.172
2.195	39.13	98.7188	4.2079	-18.101
2.203	39.22	98.7107	4.2076	-18.031
2.212	39.32	98.7026	4.2072	-17.961
2.220	39.41	98.6944	4.2069	-17.890
2.228	39.51	98.6862	4.2065	-17.821
2.237	39.60	98.6780	4.2062	-17.751
2.245	39.70	98.6698	4.2058	-17.680
2.253	39.79	98.6616	4.2055	-17.609
2.262	39.88	98.6533	4.2051	-17.539
2.270	39.98	98.6451	4.2048	-17.469
2.278	40.07	98.6368	4.2044	-17.399
2.287	40.17	98.6286	4.2041	-17.329
2.295	40.26	98.6203	4.2037	-17.259
2.303	40.36	98.6120	4.2033	-17.188
2.312	40.45	98.6037	4.2030	-17.116
2.320	40.54	98.5953	4.2026	-17.047
2.328	40.64	98.5870	4.2023	-16.976
2.337	40.73	98.5786	4.2019	-16.906
2.345	40.83	98.5702	4.2016	-16.835
2.353	40.92	98.5617	4.2012	-16.764
2.362	41.01	98.5533	4.2008	-16.694
2.370	41.11	98.5448	4.2005	-16.624
2.378	41.20	98.5363	4.2001	-16.554
2.387	41.30	98.5278	4.1998	-16.485
2.395	41.39	98.5193	4.1994	-16.416
2.403	41.48	98.5108	4.1990	-16.347
2.412	41.58	98.5023	4.1987	-16.276
2.420	41.67	98.4938	4.1983	-16.206
2.428	41.77	98.4853	4.1979	-16.137
2.437	41.86	98.4767	4.1976	-16.067
2.445	41.95	98.4682	4.1972	-15.998
2.453	42.05	98.4596	4.1969	-15.929
2.462	42.14	98.4510	4.1965	-15.859
2.470	42.24	98.4424	4.1961	-15.789
2.478	42.33	98.4337	4.1958	-15.720
2.487	42.42	98.4251	4.1954	-15.650
2.495	42.52	98.4164	4.1950	-15.581
2.503	42.61	98.4078	4.1946	-15.511
2.512	42.70	98.3991	4.1943	-15.442
2.520	42.80	98.3903	4.1939	-15.373
2.528	42.89	98.3816	4.1935	-15.303
2.537	42.98	98.3729	4.1932	-15.233
2.545	43.08	98.3642	4.1928	-15.163
2.553	43.17	98.3554	4.1924	-15.094
2.562	43.26	98.3466	4.1920	-15.024
2.570	43.36	98.3378	4.1917	-14.954
2.578	43.45	98.3290	4.1913	-14.885
2.587	43.54	98.3202	4.1909	-14.817
2.595	43.64	98.3114	4.1905	-14.746
2.603	43.73	98.3026	4.1902	-14.677
2.612	43.82	98.2937	4.1898	-14.610
2.620	43.92	98.2849	4.1894	-14.541
2.628	44.01	98.2760	4.1890	-14.473
2.637	44.10	98.2672	4.1887	-14.405
2.645	44.19	98.2583	4.1883	-14.338
2.653	44.29	98.2494	4.1879	-14.270
2.662	44.38	98.2405	4.1875	-14.203
2.670	44.47	98.2316	4.1871	-14.136
2.678	44.56	98.2226	4.1868	-14.070
2.687	44.66	98.2137	4.1864	-14.004
2.695	44.75	98.2047	4.1860	-13.936
2.703	44.84	98.1958	4.1856	-13.869
2.712	44.93	98.1868	4.1852	-13.802
2.720	45.03	98.1778	4.1848	-13.735
2.728	45.12	98.1688	4.1845	-13.668
2.737	45.21	98.1598	4.1841	-13.600
2.745	45.30	98.1508	4.1837	-13.533
2.753	45.39	98.1417	4.1833	-13.466
2.762	45.49	98.1327	4.1829	-13.398
2.770	45.58	98.1236	4.1825	-13.330
2.778	45.67	98.1146	4.1821	-13.262
2.787	45.76	98.1055	4.1818	-13.195
2.795	45.85	98.0964	4.1814	-13.128
2.803	45.94	98.0872	4.1810	-13.061
2.812	46.04	98.0781	4.1806	-12.995
2.820	46.13	98.0690	4.1802	-12.928
2.828	46.22	98.0599	4.1798	-12.863
2.837	46.31	98.0507	4.1794	-12.797
2.845	46.40	98.0416	4.1790	-12.732
2.853	46.49	98.0324	4.1786	-12.667
2.862	46.59	98.0233	4.1783	-12.603
2.870	46.68	98.0141	4.1779	-12.538
2.878	46.77	98.0050	4.1775	-12.472
2.887	46.86	97.9958	4.1771	-12.407
2.895	46.95	97.9866	4.1767	-12.343
2.903	47.04	97.9774	4.1763	-12.278
2.912	47.13	97.9682	4.1759	-12.211
2.920	47.22	97.9589	4.1755	-12.146
2.928	47.31	97.9497	4.1751	-12.081
2.937	47.40	97.9404	4.1747	-12.015
2.945	47.49	97.9312	4.1743	-11.950
2.953	47.58	97.9219	4.1739	-11.885
2.962	47.67	97.9127	4.1735	-11.820
2.970	47.76	97.9034	4.1731	-11.755
2.978	47.86	97.8941	4.1727	-11.690
2.987	47.95	97.8848	4.1724	-11.625
2.995	48.04	97.8756	4.1720	-11.561
3.003	48.13	97.8663	4.1716	-11.498
3.012	48.22	97.8570	4.1712	-11.435
3.020	48.31	97.8478	4.1708	-11.372
3.028	48.40	97.8385	4.1704	-11.308
3.037	48.49	97.8292	4.1700	-11.244
3.045	48.58	97.8199	4.1696	-11.181
3.053	48.67	97.8106	4.1692	-11.117
3.062	48.76	97.8013	4.1688	-11.054
3.070	48.84	97.7920	4.1684	-10.992
3.078	48.93	97.7827	4.1680	-10.929
3.087	49.02	97.7734	4.1676	-10.866
3.095	49.11	97.7641	4.1672	-10.803
3.103	49.20	97.7547	4.1668	-10.740
3.112	49.29	97.7454	4.1664	-10.679
3.120	49.38	97.7360	4.1660	-10.618
3.128	49.47	97.7267	4.1656	-10.557
3.137	49.56	97.7174	4.1652	-10.496
3.145	49.65	97.7080	4.1648	-10.435
3.153	49.74	97.6987	4.1644	-10.374
3.162	49.83	97.6894	4.1640	-10.312
3.170	49.92	97.6800	4.1636	-10.252
3.178	50.00	97.6707	4.1632	-10.192
3.187	50.09	97.6614	4.1628	-10.131
3.195	50.18	97.6520	4.1624	-10.070
3.203	50.27	97.6427	4.1620	-10.011
3.212	50.36	97.6334	4.1616	-9.951
3.220	50.45	97.6240	4.1612	-9.891
3.228	50.54	97.6147	4.1608	-9.830
3.237	50.62	97.6054	4.1604	-9.771
3.245	50.71	97.5960	4.1600	-9.712
3.253	50.80	97.5867	4.1596	-9.651
3.262	50.89	97.5774	4.1592	-9.591
3.270	50.98	97.5680	4.1588	-9.531
3.278	51.07	97.5587	4.1585	-9.472
3.287	51.15	97.5493	4.1581	-9.411
3.295	51.24	97.5400	4.1577	-9.350
3.303	51.33	97.5306	4.1573	-9.290
3.312	51.42	97.5213	4.1569	-9.231
3.320	51.51	97.5119	4.1565	-9.172
3.328	51.60	97.5026	4.1561	-9.113
3.337	51.68	97.4932	4.1557	-9.054
3.345	51.77	97.4839	4.1553	-8.996
3.353	51.86	97.4745	4.1549	-8.937
3.362	51.95	97.4652	4.1545	-8.879
3.370	52.03	97.4558	4.1541	-8.822
3.378	52.12	97.4464	4.1537	-8.765
3.387	52.21	97.4371	4.1533	-8.708
3.395	52.30	97.4277	4.1529	-8.650
3.403	52.38	97.4184	4.1525	-8.591
3.412	52.47	97.4091	4.1521	-8.531
3.420	52.56	97.3997	4.1517	-8.472
3.428	52.65	97.3904	4.1513	-8.415
3.437	52.73	97.3811	4.1509	-8.356
3.445	52.82	97.3718	4.1505	-8.299
3.453	52.91	97.3625	4.1501	-8.241
3.462	53.00	97.3532	4.1497	-8.183
3.470	53.08	97.3439	4.1493	-8.126
3.478	53.17	97.3346	4.1489	-8.069
3.487	53.26	97.3253	4.1485	-8.013
3.495	53.34	97.3160	4.1481	-7.958
3.503	53.43	97.3067	4.1477	-7.903
3.512	53.52	97.2974	4.1473	-7.848
3.520	53.60	97.2881	4.1469	-7.792
3.528	53.69	97.2788	4.1465	-7.736
3.537	53.78	97.2695	4.1461	-7.680
3.545	53.86	97.2603	4.1457	-7.623
3.553	53.95	97.2510	4.1453	-7.567
3.562	54.04	97.2417	4.1449	-7.510
3.570	54.12	97.2325	4.1445	-7.455
3.578	54.21	97.2233	4.1442	-7.400
3.587	54.30	97.2141	4.1438	-7.345
3.595	54.38	97.2049	4.1434	-7.289
3.603	54.47	97.1957	4.1430	-7.235
3.612	54.56	97.1866	4.1426	-7.180
3.620	54.64	97.1774	4.1422	-7.126
3.628	54.73	97.1683	4.1418	-7.071
3.637	54.81	97.1592	4.1414	-7.016
3.645	54.90	97.1500	4.1410	-6.963
3.653	54.99	97.1409	4.1406	-6.909
3.662	55.07	97.1318	4.1403	-6.854
3.670	55.16	97.1228	4.1399	-6.800
3.678	55.24	97.1137	4.1395	-6.746
3.687	55.33	97.1046	4.1391	-6.692
3.695	55.42	97.0956	4.1387	-6.637
3.703	55.50	97.0866	4.1383	-6.583
3.712	55.59	97.0775	4.1379	-6.530
3.720	55.68	97.0685	4.1376	-6.478
3.728	55.76	97.0595	4.1372	-6.425
3.737	55.85	97.0505	4.1368	-6.373
3.745	55.93	97.0415	4.1364	-6.320
3.753	56.02	97.0326	4.1360	-6.266
3.762	56.11	97.0236	4.1356	-6.214
3.770	56.19	97.0146	4.1353	-6.161
3.778	56.28	97.0057	4.1349	-6.110
3.787	56.37	96.9968	4.1345	-6.058
3.795	56.45	96.9879	4.1341	-6.004
3.803	56.54	96.9790	4.1337	-5.952
3.812	56.62	96.9702	4.1334	-5.899
3.820	56.71	96.9614	4.1330	-5.846
3.828	56.79	96.9525	4.1326	-5.794
3.837	56.88	96.9437	4.1322	-5.742
3.845	56.97	96.9350	4.1319	-5.690
3.853	57.05	96.9262	4.1315	-5.638
3.862	57.14	96.9174	4.1311	-5.587
3.870	57.22	96.9087	4.1307	-5.535
3.878	57.31	96.8999	4.1304	-5.485
3.887	57.39	96.8912	4.1300	-5.433
3.895	57.48	96.8825	4.1296	-5.381
3.903	57.56	96.8738	4.1293	-5.330
3.912	57.65	96.8650	4.1289	-5.278
3.920	57.74	96.8564	4.1285	-5.228
3.928	57.82	96.8477	4.1281	-5.178
3.937	57.91	96.8390	4.1278	-5.127
3.945	57.99	96.8303	4.1274	-5.076
3.953	58.08	96.8216	4.1270	-5.027
3.962	58.16	96.8130	4.1267	-4.975
3.970	58.25	96.8044	4.1263	-4.924
3.978	58.33	96.7958	4.1259	-4.875
3.987	58.42	96.7872	4.1256	-4.825
3.995	58.50	96.7787	4.1252	-4.776
4.003	58.59	96.7701	4.1248	-4.726
4.012	58.67	96.7616	4.1245	-4.676
4.020	58.76	96.7532	4.1241	-4.626
4.028	58.85	96.7447	4.1238	-4.576
4.037	58.93	96.7363	4.1234	-4.526
4.045	59.02	96.7279	4.1230	-4.476
4.053	59.10	96.7195	4.1227	-4.427
4.062	59.19	96.7111	4.1223	-4.378
4.070	59.27	96.7027	4.1220	-4.329
4.078	59.36	96.6944	4.1216	-4.279
4.087	59.44	96.6861	4.1213	-4.230
4.095	59.53	96.6778	4.1209	-4.180
4.103	59.61	96.6695	4.1205	-4.131
4.112	59.70	96.6612	4.1202	-4.082
4.120	59.78	96.6529	4.1198	-4.034
4.128	59.87	96.6447	4.1195	-3.986
4.137	59.95	96.6365	4.1191	-3.939
4.145	60.04	96.6283	4.1188	-3.891
4.153	60.12	96.6201	4.1184	-3.843
4.162	60.21	96.6119	4.1181	-3.795
4.170	60.29	96.6038	4.1177	-3.749
4.178	60.38	96.5957	4.1174	-3.702
4.187	60.47	96.5877	4.1171	-3.654
4.195	60.55	96.5796	4.1167	-3.606
4.203	60.64	96.5716	4.1164	-3.559
4.212	60.72	96.5636	4.1160	-3.512
4.220	60.81	96.5557	4.1157	-3.464
4.228	60.89	96.5477	4.1154	-3.417
4.237	60.98	96.5398	4.1150	-3.370
4.245	61.06	96.5319	4.1147	-3.323
4.253	61.15	96.5240	4.1143	-3.276
4.262	61.23	96.5161	4.1140	-3.228
4.270	61.32	96.5082	4.1137	-3.181
4.278	61.40	96.5004	4.1133	-3.134
4.287	61.49	96.4926	4.1130	-3.088
4.295	61.57	96.4848	4.1127	-3.041
4.303	61.66	96.4770	4.1123	-2.994
4.312	61.74	96.4693	4.1120	-2.947
4.320	61.83	96.4616	4.1117	-2.899
4.328	61.91	96.4539	4.1114	-2.854
4.337	62.00	96.4462	4.1110	-2.807
4.345	62.08	96.4386	4.1107	-2.761
4.353	62.17	96.4309	4.1104	-2.716
4.362	62.25	96.4233	4.1101	-2.669
4.370	62.34	96.4157	4.1097	-2.622
4.378	62.42	96.4081	4.1094	-2.576
4.387	62.51	96.4006	4.1091	-2.531
4.395	62.59	96.3930	4.1088	-2.487
4.403	62.68	96.3854	4.1084	-2.441
4.412	62.76	96.3779	4.1081	-2.395
4.420	62.85	96.3704	4.1078	-2.350
4.428	62.93	96.3629	4.1075	-2.304
4.437	63.02	96.3554	4.1072	-2.259
4.445	63.11	96.3479	4.1068	-2.215
4.453	63.19	96.3405	4.1065	-2.170
4.462	63.28	96.3331	4.1062	-2.125
4.470	63.36	96.3257	4.1059	-2.082
4.478	63.45	96.3184	4.1056	-2.038
4.487	63.53	96.3111	4.1053	-1.993
4.495	63.62	96.3038	4.1050	-1.949
4.503	63.70	96.2965	4.1047	-1.905
4.512	63.79	96.2892	4.1043	-1.861
4.520	63.87	96.2820	4.1040	-1.816
4.528	63.96	96.2748	4.1037	-1.771
4.537	64.04	96.2676	4.1034	-1.726
4.545	64.13	96.2605	4.1031	-1.682
4.553	64.21	96.2534	4.1028	-1.637
4.562	64.30	96.2463	4.1025	-1.592
4.570	64.38	96.2392	4.1022	-1.548
4.578	64.47	96.2322	4.1019	-1.503
4.587	64.56	96.2252	4.1016	-1.458
4.595	64.64	96.2183	4.1013	-1.413
4.603	64.73	96.2114	4.1010	-1.370
4.612	64.81	96.2044	4.1007	-1.326
4.620	64.90	96.1975	4.1004	-1.282
4.628	64.98	96.1907	4.1001	-1.238
4.637	65.07	96.1838	4.0998	-1.194
4.645	65.15	96.1770	4.0996	-1.150
4.653	65.24	96.1702	4.0993	-1.107
4.662	65.32	96.1634	4.0990	-1.065
4.670	65.41	96.1566	4.0987	-1.022
4.678	65.49	96.1499	4.0984	-0.979
4.687	65.58	96.1431	4.0981	-0.936
4.695	65.66	96.1364	4.0978	-0.894
4.703	65.75	96.1297	4.0975	-0.853
4.712	65.84	96.1231	4.0973	-0.811
4.720	65.92	96.1165	4.0970	-0.769
4.728	66.01	96.1099	4.0967	-0.727
4.737	66.09	96.1033	4.0964	-0.684
4.745	66.18	96.0968	4.0961	-0.641
4.753	66.26	96.0903	4.0959	-0.599
4.762	66.35	96.0837	4.0956	-0.557
4.770	66.43	96.0773	4.0953	-0.515
4.778	66.52	96.0708	4.0950	-0.474
4.787	66.60	96.0644	4.0948	-0.432
4.795	66.69	96.0580	4.0945	-0.390
4.803	66.77	96.0516	4.0942	-0.349
4.812	66.86	96.0452	4.0939	-0.308
4.820	66.95	96.0389	4.0937	-0.267
4.828	67.03	96.0326	4.0934	-0.226
4.837	67.12	96.0264	4.0931	-0.184
4.845	67.20	96.0201	4.0929	-0.143
4.853	67.29	96.0139	4.0926	-0.100
4.862	67.37	96.0077	4.0923	-0.058
4.870	67.46	96.0016	4.0921	-0.016
4.878	67.54	95.9955	4.0918	0.025
4.887	67.63	95.9893	4.0916	0.067
4.895	67.71	95.9832	4.0913	0.109
4.903	67.80	95.9772	4.0910	0.151
4.912	67.89	95.9711	4.0908	0.191
4.920	67.97	95.9651	4.0905	0.232
4.928	68.06	95.9591	4.0903	0.272
4.937	68.14	95.9531	4.0900	0.312
4.945	68.23	95.9471	4.0898	0.350
4.953	68.32	95.9412	4.0895	0.389
4.962	68.40	95.9352	4.0893	0.428
4.970	68.49	95.9294	4.0890	0.466
4.978	68.57	95.9235	4.0888	0.505
4.987	68.66	95.9177	4.0885	0.543
4.995	68.74	95.9119	4.0883	0.583
5.003	68.83	95.9061	4.0880	0.622
5.012	68.91	95.9004	4.0878	0.661
5.020	69.00	95.8946	4.0875	0.700
5.028	69.09	95.8890	4.0873	0.739
5.037	69.17	95.8833	4.0870	0.780
5.045	69.26	95.8777	4.0868	0.819
5.053	69.35	95.8720	4.0866	0.858
5.062	69.43	95.8665	4.0863	0.896
5.070	69.52	95.8609	4.0861	0.935
5.078	69.60	95.8553	4.0858	0.974
5.087	69.69	95.8498	4.0856	1.012
5.095	69.77	95.8443	4.0854	1.050
5.103	69.86	95.8388	4.0851	1.088
5.112	69.95	95.8333	4.0849	1.127
5.120	70.03	95.8278	4.0847	1.165
5.128	70.12	95.8224	4.0844	1.203
5.137	70.20	95.8170	4.0842	1.241
5.145	70.29	95.8116	4.0840	1.279
5.153	70.38	95.8062	4.0838	1.317
5.162	70.46	95.8008	4.0835	1.355
5.170	70.55	95.7955	4.0833	1.393
5.178	70.63	95.7902	4.0831	1.430
5.187	70.72	95.7850	4.0828	1.468
5.195	70.81	95.7797	4.0826	1.506
5.203	70.89	95.7746	4.0824	1.543
5.212	70.98	95.7694	4.0822	1.580
5.220	71.06	95.7642	4.0820	1.617
5.228	71.15	95.7591	4.0817	1.653
5.237	71.24	95.7540	4.0815	1.689
5.245	71.32	95.7489	4.0813	1.725
5.253	71.41	95.7439	4.0811	1.762
5.262	71.49	95.7389	4.0809	1.799
5.270	71.58	95.7339	4.0807	1.835
5.278	71.67	95.7289	4.0805	1.872
5.287	71.75	95.7240	4.0802	1.908
5.295	71.84	95.7191	4.0800	1.943
5.303	71.92	95.7142	4.0798	1.980
5.312	72.01	95.7094	4.0796	2.017
5.320	72.10	95.7046	4.0794	2.053
5.328	72.18	95.6998	4.0792	2.089
5.337	72.27	95.6950	4.0790	2.125
5.345	72.35	95.6902	4.0788	2.160
5.353	72.44	95.6855	4.0786	2.196
5.362	72.53	95.6808	4.0784	2.231
5.370	72.61	95.6761	4.0782	2.266
5.378	72.70	95.6714	4.0780	2.301
5.387	72.79	95.6668	4.0778	2.337
5.395	72.87	95.6622	4.0776	2.372
5.403	72.96	95.6576	4.0774	2.406
5.412	73.04	95.6530	4.0772	2.441
5.420	73.13	95.6485	4.0770	2.476
5.428	73.22	95.6439	4.0768	2.511
5.437	73.30	95.6394	4.0766	2.545
5.445	73.39	95.6349	4.0765	2.579
5.453	73.48	95.6305	4.0763	2.614
5.462	73.56	95.6260	4.0761	2.649
5.470	73.65	95.6216	4.0759	2.683
5.478	73.74	95.6171	4.0757	2.717
5.487	73.82	95.6127	4.0755	2.753
5.495	73.91	95.6084	4.0753	2.788
5.503	74.00	95.6040	4.0751	2.822
5.512	74.08	95.5997	4.0749	2.856
5.520	74.17	95.5954	4.0748	2.890
5.528	74.26	95.5911	4.0746	2.925
5.537	74.34	95.5868	4.0744	2.959
5.545	74.43	95.5826	4.0742	2.993
5.553	74.52	95.5785	4.0740	3.026
5.562	74.60	95.5743	4.0739	3.061
5.570	74.69	95.5702	4.0737	3.095
5.578	74.78	95.5661	4.0735	3.129
5.587	74.86	95.5620	4.0733	3.163
5.595	74.95	95.5580	4.0732	3.196
5.603	75.04	95.5540	4.0730	3.230
5.612	75.12	95.5500	4.0728	3.265
5.620	75.21	95.5460	4.0727	3.300
5.628	75.29	95.5420	4.0725	3.334
5.637	75.38	95.5381	4.0723	3.368
5.645	75.47	95.5342	4.0722	3.401
5.653	75.55	95.5303	4.0720	3.433
5.662	75.64	95.5264	4.0718	3.466
5.670	75.73	95.5225	4.0717	3.498
5.678	75.81	95.5187	4.0715	3.530
5.687	75.90	95.5149	4.0713	3.562
5.695	75.99	95.5110	4.0712	3.593
5.703	76.07	95.5072	4.0710	3.625
5.712	76.16	95.5035	4.0708	3.657
5.720	76.25	95.4998	4.0707	3.688
5.728	76.33	95.4961	4.0705	3.719
5.737	76.42	95.4924	4.0704	3.749
5.745	76.51	95.4887	4.0702	3.779
5.753	76.59	95.4851	4.0701	3.811
5.762	76.68	95.4814	4.0699	3.843
5.770	76.77	95.4779	4.0698	3.875
5.778	76.85	95.4743	4.0696	3.905
5.787	76.94	95.4708	4.0695	3.935
5.795	77.03	95.4673	4.0693	3.966
5.803	77.11	95.4638	4.0692	3.997
5.812	77.20	95.4603	4.0690	4.029
5.820	77.29	95.4569	4.0689	4.061
5.828	77.37	95.4535	4.0687	4.092
5.837	77.46	95.4501	4.0686	4.122
5.845	77.55	95.4467	4.0684	4.151
5.853	77.63	95.4433	4.0683	4.181
5.862	77.72	95.4400	4.0681	4.213
5.870	77.81	95.4367	4.0680	4.244
5.878	77.89	95.4334	4.0679	4.274
5.887	77.98	95.4301	4.0677	4.305
5.895	78.07	95.4268	4.0676	4.334
5.903	78.15	95.4236	4.0674	4.364
5.912	78.24	95.4203	4.0673	4.393
5.920	78.33	95.4171	4.0672	4.423
5.928	78.41	95.4139	4.0670	4.452
5.937	78.50	95.4107	4.0669	4.480
5.945	78.59	95.4075	4.0668	4.509
5.953	78.68	95.4044	4.0666	4.537
5.962	78.76	95.4013	4.0665	4.566
5.970	78.85	95.3981	4.0664	4.594
5.978	78.94	95.3950	4.0662	4.622
5.987	79.02	95.3919	4.0661	4.649
5.995	79.11	95.3888	4.0660	4.678
6.003	79.20	95.3857	4.0658	4.707
6.012	79.28	95.3827	4.0657	4.736
6.020	79.37	95.3797	4.0656	4.764
6.028	79.46	95.3766	4.0654	4.792
6.037	79.54	95.3736	4.0653	4.819
6.045	79.63	95.3706	4.0652	4.846
6.053	79.72	95.3677	4.0651	4.873
6.062	79.80	95.3647	4.0649	4.901
6.070	79.89	95.3618	4.0648	4.930
6.078	79.98	95.3589	4.0647	4.958
6.087	80.06	95.3560	4.0646	4.986
6.095	80.15	95.3531	4.0644	5.013
6.103	80.24	95.3503	4.0643	5.041
6.112	80.32	95.3475	4.0642	5.069
6.120	80.41	95.3447	4.0641	5.096
6.128	80.50	95.3419	4.0640	5.124
6.137	80.58	95.3391	4.0638	5.152
6.145	80.67	95.3364	4.0637	5.178
6.153	80.76	95.3336	4.0636	5.204
6.162	80.84	95.3309	4.0635	5.232
6.170	80.93	95.3283	4.0634	5.260
6.178	81.02	95.3256	4.0633	5.287
6.187	81.10	95.3230	4.0632	5.314
6.195	81.19	95.3204	4.0630	5.341
6.203	81.28	95.3178	4.0629	5.368
6.212	81.37	95.3153	4.0628	5.394
6.220	81.45	95.3127	4.0627	5.421
6.228	81.54	95.3102	4.0626	5.448
6.237	81.63	95.3077	4.0625	5.474
6.245	81.71	95.3052	4.0624	5.499
6.253	81.80	95.3028	4.0623	5.525
6.262	81.89	95.3003	4.0622	5.549
6.270	81.97	95.2979	4.0621	5.575
6.278	82.06	95.2955	4.0620	5.601
6.287	82.15	95.2931	4.0619	5.626
6.295	82.23	95.2907	4.0618	5.652
6.303	82.32	95.2883	4.0617	5.678
6.312	82.41	95.2860	4.0616	5.703
6.320	82.49	95.2836	4.0615	5.728
6.328	82.58	95.2813	4.0614	5.754
6.337	82.67	95.2790	4.0613	5.780
6.345	82.76	95.2767	4.0612	5.807
6.353	82.84	95.2745	4.0611	5.832
6.362	82.93	95.2722	4.0610	5.855
6.370	83.02	95.2700	4.0609	5.880
6.378	83.10	95.2677	4.0608	5.904
6.387	83.19	95.2655	4.0607	5.929
6.395	83.28	95.2633	4.0606	5.953
6.403	83.36	95.2611	4.0605	5.976
6.412	83.45	95.2590	4.0604	5.999
6.420	83.54	95.2568	4.0603	6.021
6.428	83.62	95.2547	4.0602	6.042
6.437	83.71	95.2526	4.0602	6.066
6.445	83.80	95.2505	4.0601	6.090
6.453	83.88	95.2484	4.0600	6.113
6.462	83.97	95.2463	4.0599	6.136
6.470	84.06	95.2443	4.0598	6.159
6.478	84.14	95.2423	4.0597	6.182
6.487	84.23	95.2402	4.0596	6.204
6.495	84.32	95.2382	4.0595	6.228
6.503	84.40	95.2363	4.0595	6.251
6.512	84.49	95.2343	4.0594	6.274
6.520	84.58	95.2323	4.0593	6.296
6.528	84.66	95.2304	4.0592	6.318
6.537	84.75	95.2284	4.0591	6.341
6.545	84.84	95.2265	4.0590	6.364
6.553	84.92	95.2246	4.0590	6.387
6.562	85.01	95.2227	4.0589	6.410
6.570	85.10	95.2208	4.0588	6.432
6.578	85.18	95.2189	4.0587	6.456
6.587	85.27	95.2171	4.0586	6.479
6.595	85.36	95.2152	4.0586	6.501
6.603	85.44	95.2134	4.0585	6.523
6.612	85.53	95.2116	4.0584	6.543
6.620	85.62	95.2098	4.0583	6.565
6.628	85.70	95.2080	4.0583	6.588
6.637	85.79	95.2063	4.0582	6.609
6.645	85.88	95.2045	4.0581	6.631
6.653	85.96	95.2028	4.0580	6.653
6.662	86.05	95.2011	4.0580	6.673
6.670	86.14	95.1993	4.0579	6.693
6.678	86.23	95.1977	4.0578	6.714
6.687	86.31	95.1960	4.0577	6.736
6.695	86.40	95.1943	4.0577	6.759
6.703	86.49	95.1926	4.0576	6.780
6.712	86.57	95.1910	4.0575	6.801
6.720	86.66	95.1894	4.0575	6.822
6.728	86.74	95.1878	4.0574	6.841
6.737	86.83	95.1862	4.0573	6.862
6.745	86.92	95.1846	4.0573	6.881
6.753	87.00	95.1831	4.0572	6.901
6.762	87.09	95.1815	4.0571	6.921
6.770	87.18	95.1800	4.0571	6.940
6.778	87.26	95.1785	4.0570	6.960
6.787	87.35	95.1770	4.0569	6.979
6.795	87.44	95.1755	4.0569	6.999
6.803	87.52	95.1740	4.0568	7.018
6.812	87.61	95.1725	4.0567	7.037
6.820	87.70	95.1711	4.0567	7.057
6.828	87.78	95.1696	4.0566	7.077
6.837	87.87	95.1682	4.0566	7.098
6.845	87.96	95.1667	4.0565	7.117
6.853	88.04	95.1653	4.0564	7.136
6.862	88.13	95.1639	4.0564	7.154
6.870	88.22	95.1625	4.0563	7.173
6.878	88.30	95.1612	4.0563	7.191
6.887	88.39	95.1598	4.0562	7.210
6.895	88.48	95.1585	4.0561	7.229
6.903	88.56	95.1571	4.0561	7.248
6.912	88.65	95.1558	4.0560	7.267
6.920	88.73	95.1545	4.0560	7.284
6.928	88.82	95.1532	4.0559	7.303
6.937	88.91	95.1519	4.0559	7.323
6.945	88.99	95.1506	4.0558	7.342
6.953	89.08	95.1493	4.0558	7.361
6.962	89.17	95.1480	4.0557	7.380
6.970	89.25	95.1467	4.0556	7.398
6.978	89.34	95.1455	4.0556	7.416
6.987	89.43	95.1442	4.0555	7.433
6.995	89.51	95.1429	4.0555	7.450
7.003	89.60	95.1417	4.0554	7.468
7.012	89.69	95.1405	4.0554	7.485
7.020	89.77	95.1393	4.0553	7.502
7.028	89.86	95.1381	4.0553	7.519
7.037	89.95	95.1370	4.0552	7.535
7.045	90.03	95.1358	4.0552	7.552
7.053	90.12	95.1347	4.0551	7.568
7.062	90.21	95.1336	4.0551	7.585
7.070	90.29	95.1325	4.0550	7.602
7.078	90.38	95.1314	4.0550	7.619
7.087	90.46	95.1304	4.0549	7.637
7.095	90.55	95.1293	4.0549	7.654
7.103	90.64	95.1282	4.0549	7.671
7.112	90.72	95.1271	4.0548	7.687
7.120	90.81	95.1261	4.0548	7.703
7.128	90.90	95.1250	4.0547	7.720
7.137	90.98	95.1239	4.0547	7.737
7.145	91.07	95.1228	4.0546	7.754
7.153	91.16	95.1217	4.0546	7.769
7.162	91.24	95.1206	4.0545	7.785
7.170	91.33	95.1196	4.0545	7.800
7.178	91.42	95.1185	4.0544	7.816
7.187	91.50	95.1175	4.0544	7.830
7.195	91.59	95.1164	4.0544	7.845
7.203	91.68	95.1154	4.0543	7.861
7.212	91.76	95.1144	4.0543	7.876
7.220	91.85	95.1134	4.0542	7.890
7.228	91.93	95.1125	4.0542	7.904
7.237	92.02	95.1115	4.0541	7.919
7.245	92.11	95.1106	4.0541	7.934
7.253	92.19	95.1096	4.0541	7.948
7.262	92.28	95.1086	4.0540	7.963
7.270	92.37	95.1077	4.0540	7.978
7.278	92.45	95.1068	4.0539	7.993
7.287	92.54	95.1059	4.0539	8.008
7.295	92.62	95.1049	4.0539	8.022
7.303	92.71	95.1041	4.0538	8.037
7.312	92.80	95.1032	4.0538	8.052
7.320	92.88	95.1023	4.0537	8.068
7.328	92.97	95.1015	4.0537	8.082
7.337	93.06	95.1006	4.0537	8.097
7.345	93.14	95.0998	4.0536	8.111
7.353	93.23	95.0990	4.0536	8.126
7.362	93.31	95.0982	4.0536	8.140
7.370	93.40	95.0974	4.0535	8.153
7.378	93.49	95.0967	4.0535	8.165
7.387	93.57	95.0959	4.0535	8.178
7.395	93.66	95.0951	4.0534	8.190
7.403	93.75	95.0944	4.0534	8.203
7.412	93.83	95.0937	4.0534	8.216
7.420	93.92	95.0929	4.0533	8.229
7.428	94.00	95.0921	4.0533	8.241
7.437	94.09	95.0914	4.0533	8.254
7.445	94.17	95.0907	4.0533	8.267
7.453	94.26	95.0899	4.0532	8.280
7.462	94.35	95.0892	4.0532	8.294
7.470	94.43	95.0884	4.0532	8.307
7.478	94.52	95.0877	4.0531	8.319
7.487	94.61	95.0870	4.0531	8.330
7.495	94.69	95.0863	4.0531	8.342
7.503	94.78	95.0856	4.0530	8.354
7.512	94.86	95.0849	4.0530	8.366
7.520	94.95	95.0842	4.0530	8.378
7.528	95.04	95.0835	4.0529	8.389
7.537	95.12	95.0829	4.0529	8.400
7.545	95.21	95.0822	4.0529	8.411
7.553	95.30	95.0815	4.0529	8.423
7.562	95.38	95.0809	4.0528	8.435
7.570	95.47	95.0802	4.0528	8.447
7.578	95.55	95.0796	4.0528	8.459
7.587	95.64	95.0789	4.0528	8.470
7.595	95.72	95.0783	4.0527	8.482
7.603	95.81	95.0777	4.0527	8.495
7.612	95.90	95.0771	4.0527	8.508
7.620	95.98	95.0765	4.0526	8.522
7.628	96.07	95.0759	4.0526	8.536
7.637	96.15	95.0749	4.0526	8.552
7.645	96.24	95.0730	4.0525	8.568
7.653	96.33	95.0702	4.0524	8.584
7.662	96.41	95.0665	4.0522	8.601
7.670	96.50	95.0622	4.0520	8.618
7.678	96.59	95.0573	4.0518	8.634
7.687	96.67	95.0518	4.0516	8.652
7.695	96.76	95.0456	4.0513	8.669
7.703	96.84	95.0389	4.0510	8.686
7.712	96.93	95.0315	4.0507	8.702
7.720	97.02	95.0239	4.0504	8.716
7.728	97.10	95.0165	4.0501	8.730
7.737	97.19	95.0097	4.0498	8.743
7.745	97.27	95.0031	4.0495	8.757
7.753	97.36	94.9966	4.0492	8.770
7.762	97.45	94.9904	4.0490	8.784
7.770	97.53	94.9843	4.0487	8.795
7.778	97.62	94.9784	4.0485	8.806
7.787	97.70	94.9728	4.0482	8.819
7.795	97.79	94.9675	4.0480	8.830
7.803	97.87	94.9623	4.0478	8.841
7.812	97.96	94.9573	4.0476	8.853
7.820	98.05	94.9526	4.0474	8.865
7.828	98.13	94.9481	4.0472	8.876
7.837	98.22	94.9437	4.0470	8.888
7.845	98.30	94.9395	4.0468	8.899
7.853	98.39	94.9355	4.0466	8.910
7.862	98.48	94.9315	4.0465	8.920
7.870	98.56	94.9276	4.0463	8.930
7.878	98.65	94.9239	4.0461	8.941
7.887	98.73	94.9203	4.0460	8.951
7.895	98.82	94.9169	4.0458	8.960
7.903	98.91	94.9135	4.0457	8.970
7.912	98.99	94.9103	4.0456	8.978
7.920	99.08	94.9071	4.0454	8.987
7.928	99.16	94.9041	4.0453	8.995
7.937	99.25	94.9011	4.0452	9.003
7.945	99.34	94.8982	4.0450	9.012
7.953	99.42	94.8954	4.0449	9.020
7.962	99.51	94.8927	4.0448	9.028
7.970	99.59	94.8901	4.0447	9.035
7.978	99.68	94.8876	4.0446	9.043
7.987	99.76	94.8851	4.0445	9.050
7.995	99.85	94.8827	4.0444	9.057
8.003	99.94	94.8804	4.0443	9.065
8.012	100.02	94.8782	4.0442	9.072
8.020	100.11	94.8761	4.0441	9.080
8.028	100.20	94.8740	4.0440	9.087
8.037	100.28	94.8720	4.0439	9.094
8.045	100.37	94.8701	4.0438	9.101
8.053	100.45	94.8682	4.0438	9.108
8.062	100.54	94.8664	4.0437	9.114
8.070	100.63	94.8647	4.0436	9.120
8.078	100.71	94.8630	4.0435	9.125
8.087	100.80	94.8619	4.0435	9.129
8.095	100.88	94.8615	4.0435	9.132
8.103	100.97	94.8620	4.0435	9.135
8.112	101.06	94.8632	4.0436	9.137
8.120	101.14	94.8651	4.0436	9.138
8.128	101.23	94.8676	4.0437	9.140
8.137	101.31	94.8706	4.0439	9.141
8.145	101.40	94.8743	4.0440	9.142
8.153	101.49	94.8785	4.0442	9.143
8.162	101.57	94.8831	4.0444	9.143
8.170	101.66	94.8878	4.0446	9.144
8.178	101.74	94.8922	4.0448	9.145
8.187	101.83	94.8964	4.0450	9.145
8.195	101.91	94.9003	4.0451	9.146
8.203	102.00	94.9041	4.0453	9.147
8.212	102.09	94.9077	4.0455	9.149
8.220	102.17	94.9111	4.0456	9.150
8.228	102.26	94.9145	4.0457	9.152
8.237	102.34	94.9176	4.0459	9.154
8.245	102.43	94.9207	4.0460	9.156
8.253	102.51	94.9236	4.0461	9.158
8.262	102.60	94.9264	4.0463	9.161
8.270	102.69	94.9291	4.0464	9.164
8.278	102.77	94.9316	4.0465	9.167
8.287	102.86	94.9341	4.0466	9.171
8.295	102.94	94.9364	4.0467	9.174
8.303	103.03	94.9386	4.0468	9.178
8.312	103.11	94.9408	4.0469	9.182
8.320	103.20	94.9428	4.0470	9.186
8.328	103.29	94.9448	4.0470	9.191
8.337	103.37	94.9467	4.0471	9.196
8.345	103.46	94.9485	4.0472	9.202
8.353	103.54	94.9502	4.0473	9.207
8.362	103.63	94.9518	4.0473	9.212
8.370	103.72	94.9534	4.0474	9.216
8.378	103.80	94.9548	4.0475	9.221
8.387	103.89	94.9563	4.0475	9.226
8.395	103.97	94.9576	4.0476	9.230
8.403	104.06	94.9589	4.0476	9.234
8.412	104.15	94.9601	4.0477	9.237
8.420	104.23	94.9613	4.0477	9.240
8.428	104.32	94.9624	4.0478	9.244
8.437	104.40	94.9634	4.0478	9.247
8.445	104.49	94.9644	4.0479	9.250
8.453	104.57	94.9654	4.0479	9.253
8.462	104.66	94.9663	4.0480	9.257
8.470	104.74	94.9672	4.0480	9.260
8.478	104.83	94.9680	4.0480	9.264
8.487	104.91	94.9687	4.0481	9.267
8.495	105.00	94.9695	4.0481	9.271
8.503	105.09	94.9701	4.0481	9.275
8.512	105.17	94.9708	4.0481	9.279
8.520	105.26	94.9714	4.0482	9.283
8.528	105.34	94.9719	4.0482	9.288
8.537	105.43	94.9725	4.0482	9.292
8.545	105.51	94.9730	4.0482	9.295
8.553	105.60	94.9735	4.0483	9.299
8.562	105.68	94.9739	4.0483	9.302
8.570	105.77	94.9744	4.0483	9.305
8.578	105.86	94.9748	4.0483	9.308
8.587	105.94	94.9751	4.0483	9.312
8.595	106.03	94.9755	4.0483	9.315
8.603	106.11	94.9758	4.0484	9.318
8.612	106.20	94.9762	4.0484	9.321
8.620	106.28	94.9765	4.0484	9.323
8.628	106.37	94.9767	4.0484	9.326
8.637	106.46	94.9769	4.0484	9.329
8.645	106.54	94.9772	4.0484	9.332
8.653	106.63	94.9774	4.0484	9.336

[step]
Isothermal 30.0 min
Time	Temperature	Weight	Weight	Heat Flow
min	°C	%	mg	mW
8.662	106.71	94.9776	4.0484	9.339
8.687	106.97	94.9780	4.0484	9.348
8.712	107.23	94.9783	4.0485	9.355
8.737	107.48	94.9786	4.0485	9.362
8.762	107.74	94.9787	4.0485	9.373
8.787	107.99	94.9788	4.0485	9.386
8.812	108.24	94.9788	4.0485	9.401
8.837	108.49	94.9786	4.0485	9.418
8.862	108.73	94.9783	4.0485	9.439
8.887	108.97	94.9778	4.0484	9.466
8.912	109.21	94.9773	4.0484	9.499
8.937	109.44	94.9767	4.0484	9.538
8.962	109.67	94.9760	4.0484	9.580
8.987	109.89	94.9753	4.0483	9.625
9.012	110.11	94.9745	4.0483	9.671
9.037	110.32	94.9737	4.0483	9.719
9.062	110.53	94.9729	4.0482	9.773
9.087	110.73	94.9720	4.0482	9.832
9.112	110.92	94.9710	4.0482	9.891
9.137	111.11	94.9699	4.0481	9.953
9.162	111.29	94.9689	4.0481	10.014
9.187	111.47	94.9679	4.0480	10.078
9.212	111.64	94.9668	4.0480	10.145
9.237	111.80	94.9657	4.0479	10.211
9.262	111.96	94.9646	4.0479	10.277
9.287	112.11	94.9634	4.0478	10.345
9.312	112.25	94.9621	4.0478	10.414
9.337	112.38	94.9607	4.0477	10.488
9.362	112.51	94.9593	4.0477	10.561
9.387	112.63	94.9580	4.0476	10.634
9.412	112.75	94.9568	4.0475	10.708
9.437	112.85	94.9556	4.0475	10.784
9.462	112.95	94.9545	4.0475	10.865
9.487	113.04	94.9534	4.0474	10.945
9.512	113.13	94.9522	4.0474	11.022
9.537	113.20	94.9509	4.0473	11.096
9.562	113.27	94.9496	4.0472	11.171
9.587	113.34	94.9482	4.0472	11.244
9.612	113.39	94.9469	4.0471	11.316
9.637	113.44	94.9456	4.0471	11.384
9.662	113.49	94.9442	4.0470	11.451
9.687	113.53	94.9429	4.0470	11.513
9.712	113.56	94.9415	4.0469	11.574
9.737	113.59	94.9401	4.0468	11.633
9.762	113.61	94.9388	4.0468	11.690
9.787	113.63	94.9375	4.0467	11.746
9.812	113.64	94.9361	4.0467	11.798
9.837	113.65	94.9347	4.0466	11.846
9.862	113.65	94.9334	4.0465	11.888
9.887	113.65	94.9319	4.0465	11.929
9.912	113.64	94.9305	4.0464	11.968
9.937	113.63	94.9291	4.0464	12.007
9.962	113.62	94.9278	4.0463	12.045
9.987	113.60	94.9265	4.0463	12.079
10.012	113.58	94.9253	4.0462	12.108
10.037	113.55	94.9239	4.0461	12.135
10.062	113.52	94.9225	4.0461	12.159
10.087	113.50	94.9211	4.0460	12.180
10.112	113.47	94.9198	4.0460	12.197
10.137	113.43	94.9185	4.0459	12.207
10.162	113.40	94.9172	4.0459	12.216
10.187	113.36	94.9160	4.0458	12.222
10.212	113.33	94.9148	4.0458	12.227
10.237	113.29	94.9137	4.0457	12.231
10.262	113.25	94.9127	4.0457	12.233
10.287	113.22	94.9118	4.0456	12.233
10.312	113.18	94.9109	4.0456	12.232
10.337	113.14	94.9100	4.0456	12.229
10.362	113.10	94.9092	4.0455	12.225
10.387	113.06	94.9083	4.0455	12.219
10.412	113.02	94.9075	4.0454	12.211
10.437	112.98	94.9067	4.0454	12.199
10.462	112.94	94.9059	4.0454	12.184
10.487	112.90	94.9051	4.0453	12.165
10.512	112.86	94.9044	4.0453	12.146
10.537	112.82	94.9037	4.0453	12.126
10.562	112.78	94.9032	4.0453	12.105
10.587	112.74	94.9025	4.0452	12.082
10.612	112.70	94.9019	4.0452	12.060
10.637	112.66	94.9013	4.0452	12.040
10.662	112.62	94.9008	4.0452	12.018
10.687	112.59	94.9003	4.0451	11.992
10.712	112.55	94.8998	4.0451	11.964
10.737	112.52	94.8993	4.0451	11.937
10.762	112.48	94.8989	4.0451	11.913
10.787	112.45	94.8984	4.0451	11.892
10.812	112.42	94.8979	4.0450	11.871
10.837	112.39	94.8975	4.0450	11.848
10.862	112.35	94.8970	4.0450	11.824
10.887	112.33	94.8966	4.0450	11.796
10.912	112.30	94.8961	4.0450	11.768
10.937	112.27	94.8957	4.0449	11.738
10.962	112.25	94.8952	4.0449	11.709
10.987	112.22	94.8947	4.0449	11.684
11.012	112.20	94.8943	4.0449	11.661
11.037	112.17	94.8940	4.0449	11.637
11.062	112.15	94.8937	4.0449	11.611
11.087	112.13	94.8934	4.0448	11.583
11.112	112.12	94.8931	4.0448	11.556
11.137	112.10	94.8929	4.0448	11.530
11.162	112.08	94.8927	4.0448	11.505
11.187	112.07	94.8924	4.0448	11.481
11.212	112.06	94.8921	4.0448	11.459
11.237	112.04	94.8918	4.0448	11.437
11.262	112.03	94.8915	4.0448	11.413
11.287	112.03	94.8912	4.0447	11.391
11.312	112.02	94.8909	4.0447	11.370
11.337	112.01	94.8906	4.0447	11.353
11.362	112.00	94.8904	4.0447	11.335
11.387	112.00	94.8901	4.0447	11.317
11.412	112.00	94.8899	4.0447	11.302
11.437	111.99	94.8896	4.0447	11.284
11.462	111.99	94.8893	4.0447	11.264
11.487	111.99	94.8890	4.0447	11.241
11.512	111.99	94.8889	4.0447	11.219
[...]
237.262	948.74	-4.6232	-0.1971	58.727
237.270	948.74	-4.6232	-0.1971	58.737
237.278	948.74	-4.6232	-0.1971	58.748
237.287	948.74	-4.6233	-0.1971	58.757
237.295	948.75	-4.6233	-0.1971	58.767
237.303	948.75	-4.6234	-0.1971	58.776
237.312	948.75	-4.6234	-0.1971	58.785
237.320	948.75	-4.6234	-0.1971	58.794
237.328	948.75	-4.6235	-0.1971	58.803
237.337	948.75	-4.6235	-0.1971	58.814
237.345	948.75	-4.6236	-0.1971	58.826
237.353	948.75	-4.6236	-0.1971	58.839
237.362	948.75	-4.6237	-0.1971	58.854
237.370	948.75	-4.6238	-0.1971	58.868
237.378	948.75	-4.6238	-0.1971	58.882
237.387	948.75	-4.6239	-0.1971	58.896
237.395	948.75	-4.6240	-0.1971	58.909
237.403	948.75	-4.6240	-0.1971	58.922
237.412	948.75	-4.6241	-0.1971	58.934
237.420	948.75	-4.6242	-0.1971	58.946
237.428	948.75	-4.6242	-0.1971	58.956
237.437	948.75	-4.6243	-0.1971	58.966
237.445	948.76	-4.6244	-0.1971	58.975
237.453	948.76	-4.6244	-0.1971	58.985
237.462	948.76	-4.6245	-0.1971	58.996
237.470	948.76	-4.6246	-0.1971	59.007
237.478	948.76	-4.6246	-0.1971	59.020
237.487	948.76	-4.6247	-0.1971	59.033
237.495	948.76	-4.6248	-0.1971	59.046
237.503	948.76	-4.6249	-0.1971	59.059
237.512	948.76	-4.6249	-0.1971	59.072
237.520	948.76	-4.6250	-0.1971	59.084
237.528	948.76	-4.6251	-0.1971	59.096
237.537	948.76	-4.6252	-0.1971	59.107
237.545	948.76	-4.6252	-0.1972	59.118
237.553	948.76	-4.6253	-0.1972	59.128
237.562	948.76	-4.6254	-0.1972	59.138
237.570	948.76	-4.6254	-0.1972	59.147
237.578	948.76	-4.6255	-0.1972	59.155
237.587	948.76	-4.6255	-0.1972	59.164
237.595	948.76	-4.6256	-0.1972	59.173
237.603	948.76	-4.6256	-0.1972	59.183
237.612	948.76	-4.6257	-0.1972	59.193
237.620	948.76	-4.6257	-0.1972	59.203
237.628	948.77	-4.6258	-0.1972	59.213
237.637	948.77	-4.6259	-0.1972	59.224
237.645	948.77	-4.6259	-0.1972	59.234
237.653	948.77	-4.6260	-0.1972	59.245
237.662	948.77	-4.6261	-0.1972	59.257
237.670	948.77	-4.6262	-0.1972	59.268
237.678	948.77	-4.6263	-0.1972	59.279
237.687	948.77	-4.6264	-0.1972	59.288
237.695	948.77	-4.6264	-0.1972	59.298
237.703	948.77	-4.6265	-0.1972	59.307
237.712	948.77	-4.6266	-0.1972	59.316
237.720	948.77	-4.6266	-0.1972	59.325
237.728	948.77	-4.6267	-0.1972	59.334
237.737	948.77	-4.6267	-0.1972	59.343
237.745	948.77	-4.6268	-0.1972	59.351
237.753	948.77	-4.6268	-0.1972	59.359
237.762	948.77	-4.6269	-0.1972	59.367
237.770	948.77	-4.6269	-0.1972	59.376
237.778	948.77	-4.6270	-0.1972	59.386
237.787	948.78	-4.6270	-0.1972	59.395
237.795	948.78	-4.6271	-0.1972	59.404
237.803	948.78	-4.6271	-0.1972	59.412
237.812	948.78	-4.6272	-0.1972	59.421
237.820	948.78	-4.6273	-0.1972	59.430
237.828	948.78	-4.6273	-0.1972	59.440
237.837	948.78	-4.6274	-0.1972	59.449
237.845	948.78	-4.6275	-0.1972	59.459
237.853	948.78	-4.6275	-0.1972	59.468
237.862	948.78	-4.6276	-0.1973	59.476
237.870	948.78	-4.6277	-0.1973	59.484
237.878	948.78	-4.6278	-0.1973	59.492
237.887	948.78	-4.6278	-0.1973	59.500
237.895	948.78	-4.6279	-0.1973	59.509
237.903	948.78	-4.6280	-0.1973	59.516
237.912	948.78	-4.6280	-0.1973	59.524
237.920	948.78	-4.6281	-0.1973	59.533
237.928	948.78	-4.6281	-0.1973	59.540
237.937	948.78	-4.6282	-0.1973	59.547
237.945	948.78	-4.6283	-0.1973	59.555
237.953	948.79	-4.6283	-0.1973	59.562
237.962	948.79	-4.6284	-0.1973	59.570
237.970	948.79	-4.6284	-0.1973	59.577
237.978	948.79	-4.6285	-0.1973	59.585
237.987	948.79	-4.6285	-0.1973	59.593
237.995	948.79	-4.6286	-0.1973	59.600
238.003	948.79	-4.6286	-0.1973	59.607
238.012	948.79	-4.6286	-0.1973	59.615
238.020	948.79	-4.6287	-0.1973	59.623
238.028	948.79	-4.6287	-0.1973	59.631
238.037	948.79	-4.6287	-0.1973	59.640
238.045	948.79	-4.6288	-0.1973	59.649
238.053	948.79	-4.6288	-0.1973	59.658
238.062	948.79	-4.6289	-0.1973	59.667
238.070	948.79	-4.6289	-0.1973	59.676
238.078	948.79	-4.6290	-0.1973	59.685
238.087	948.79	-4.6291	-0.1973	59.694
238.095	948.79	-4.6291	-0.1973	59.703
238.103	948.79	-4.6292	-0.1973	59.712
238.112	948.79	-4.6293	-0.1973	59.720
238.120	948.79	-4.6294	-0.1973	59.728
238.128	948.79	-4.6294	-0.1973	59.736
238.137	948.79	-4.6295	-0.1973	59.745
238.145	948.80	-4.6295	-0.1973	59.754
238.153	948.80	-4.6296	-0.1973	59.765
238.162	948.80	-4.6296	-0.1973	59.775
238.170	948.80	-4.6297	-0.1973	59.785
238.178	948.80	-4.6298	-0.1973	59.796
238.187	948.80	-4.6298	-0.1973	59.807
238.195	948.80	-4.6299	-0.1974	59.819
238.203	948.80	-4.6300	-0.1974	59.830
238.212	948.80	-4.6300	-0.1974	59.841
238.220	948.80	-4.6301	-0.1974	59.852
238.228	948.80	-4.6302	-0.1974	59.862
238.237	948.80	-4.6303	-0.1974	59.871
238.245	948.80	-4.6304	-0.1974	59.880
238.253	948.80	-4.6304	-0.1974	59.889
238.262	948.80	-4.6305	-0.1974	59.898
238.270	948.80	-4.6305	-0.1974	59.906
238.278	948.80	-4.6306	-0.1974	59.915
238.287	948.80	-4.6306	-0.1974	59.924
238.295	948.80	-4.6307	-0.1974	59.934
238.303	948.80	-4.6308	-0.1974	59.944
238.312	948.80	-4.6309	-0.1974	59.954
238.320	948.80	-4.6310	-0.1974	59.963
238.328	948.80	-4.6311	-0.1974	59.973
238.337	948.80	-4.6312	-0.1974	59.983
238.345	948.80	-4.6313	-0.1974	59.993
238.353	948.80	-4.6314	-0.1974	60.003
238.362	948.80	-4.6315	-0.1974	60.013
238.370	948.80	-4.6316	-0.1974	60.023
238.378	948.80	-4.6317	-0.1974	60.032
238.387	948.80	-4.6318	-0.1974	60.040
238.395	948.81	-4.6318	-0.1974	60.047
238.403	948.81	-4.6319	-0.1974	60.055
238.412	948.81	-4.6320	-0.1974	60.062
238.420	948.81	-4.6320	-0.1974	60.069
238.428	948.81	-4.6321	-0.1974	60.075
238.437	948.81	-4.6321	-0.1974	60.081
238.445	948.81	-4.6322	-0.1974	60.087
238.453	948.81	-4.6323	-0.1975	60.093
238.462	948.81	-4.6323	-0.1975	60.099
238.470	948.81	-4.6324	-0.1975	60.108
238.478	948.81	-4.6325	-0.1975	60.117
238.487	948.81	-4.6325	-0.1975	60.127
238.495	948.81	-4.6326	-0.1975	60.137
238.503	948.81	-4.6327	-0.1975	60.147
238.512	948.81	-4.6327	-0.1975	60.157
238.520	948.81	-4.6328	-0.1975	60.167
238.528	948.81	-4.6328	-0.1975	60.176
238.537	948.81	-4.6329	-0.1975	60.186
238.545	948.81	-4.6329	-0.1975	60.195
238.553	948.81	-4.6330	-0.1975	60.202
238.562	948.81	-4.6331	-0.1975	60.210
238.570	948.81	-4.6331	-0.1975	60.217
238.578	948.81	-4.6332	-0.1975	60.224
238.587	948.81	-4.6332	-0.1975	60.231
238.595	948.81	-4.6333	-0.1975	60.238
238.603	948.81	-4.6334	-0.1975	60.245
238.612	948.82	-4.6334	-0.1975	60.252
238.620	948.82	-4.6335	-0.1975	60.259
238.628	948.82	-4.6335	-0.1975	60.267
238.637	948.82	-4.6336	-0.1975	60.275
238.645	948.82	-4.6336	-0.1975	60.283
238.653	948.82	-4.6337	-0.1975	60.290
238.662	948.82	-4.6338	-0.1975	60.298
238.670	948.82	-4.6338	-0.1975	60.305
238.678	948.82	-4.6339	-0.1975	60.312
238.687	948.82	-4.6339	-0.1975	60.319
238.695	948.82	-4.6340	-0.1975	60.325
238.703	948.82	-4.6340	-0.1975	60.331
238.712	948.82	-4.6341	-0.1975	60.337
238.720	948.82	-4.6341	-0.1975	60.343
238.728	948.82	-4.6342	-0.1975	60.349
238.737	948.82	-4.6343	-0.1975	60.355
238.745	948.82	-4.6343	-0.1975	60.361
238.753	948.82	-4.6344	-0.1975	60.368
238.762	948.82	-4.6345	-0.1975	60.374
238.770	948.82	-4.6346	-0.1975	60.381
238.778	948.82	-4.6347	-0.1976	60.389
238.787	948.82	-4.6347	-0.1976	60.397
238.795	948.82	-4.6348	-0.1976	60.405
238.803	948.82	-4.6348	-0.1976	60.413
238.812	948.82	-4.6349	-0.1976	60.420
238.820	948.83	-4.6350	-0.1976	60.427
238.828	948.83	-4.6350	-0.1976	60.433
238.837	948.83	-4.6351	-0.1976	60.440
238.845	948.83	-4.6351	-0.1976	60.446
238.853	948.83	-4.6352	-0.1976	60.453
238.862	948.83	-4.6353	-0.1976	60.460
238.870	948.83	-4.6353	-0.1976	60.465
238.878	948.83	-4.6354	-0.1976	60.471
238.887	948.83	-4.6355	-0.1976	60.476
238.895	948.83	-4.6355	-0.1976	60.482
238.903	948.83	-4.6356	-0.1976	60.489
238.912	948.83	-4.6357	-0.1976	60.496
238.920	948.83	-4.6357	-0.1976	60.503
238.928	948.83	-4.6358	-0.1976	60.510
238.937	948.83	-4.6358	-0.1976	60.517
238.945	948.83	-4.6359	-0.1976	60.525
238.953	948.83	-4.6359	-0.1976	60.533
238.962	948.83	-4.6360	-0.1976	60.541
238.970	948.83	-4.6360	-0.1976	60.548
238.978	948.83	-4.6361	-0.1976	60.556
238.987	948.83	-4.6362	-0.1976	60.563
238.995	948.83	-4.6362	-0.1976	60.570
239.003	948.83	-4.6363	-0.1976	60.577
239.012	948.83	-4.6364	-0.1976	60.583
239.020	948.83	-4.6365	-0.1976	60.589
239.028	948.83	-4.6365	-0.1976	60.595
239.037	948.83	-4.6366	-0.1976	60.603
239.045	948.83	-4.6367	-0.1976	60.611
239.053	948.83	-4.6367	-0.1976	60.620
239.062	948.83	-4.6368	-0.1976	60.628
239.070	948.83	-4.6369	-0.1976	60.636
239.078	948.83	-4.6369	-0.1976	60.645
239.087	948.83	-4.6370	-0.1977	60.653
239.095	948.83	-4.6370	-0.1977	60.661
239.103	948.83	-4.6371	-0.1977	60.670
239.112	948.84	-4.6371	-0.1977	60.679
239.120	948.84	-4.6372	-0.1977	60.687
239.128	948.84	-4.6373	-0.1977	60.693
239.137	948.84	-4.6373	-0.1977	60.700
239.145	948.84	-4.6374	-0.1977	60.706
239.153	948.84	-4.6374	-0.1977	60.713
239.162	948.84	-4.6375	-0.1977	60.720
239.170	948.84	-4.6375	-0.1977	60.728
239.178	948.84	-4.6376	-0.1977	60.736
239.187	948.84	-4.6377	-0.1977	60.743
239.195	948.84	-4.6377	-0.1977	60.750
239.203	948.84	-4.6378	-0.1977	60.757
239.212	948.84	-4.6378	-0.1977	60.765
239.220	948.84	-4.6379	-0.1977	60.772
239.228	948.84	-4.6380	-0.1977	60.780
239.237	948.84	-4.6380	-0.1977	60.788
239.245	948.84	-4.6381	-0.1977	60.795
239.253	948.84	-4.6382	-0.1977	60.802
239.262	948.84	-4.6382	-0.1977	60.809
239.270	948.84	-4.6383	-0.1977	60.816
239.278	948.84	-4.6383	-0.1977	60.824
239.287	948.84	-4.6384	-0.1977	60.832
239.295	948.84	-4.6384	-0.1977	60.840
239.303	948.84	-4.6385	-0.1977	60.849
239.312	948.84	-4.6385	-0.1977	60.858
239.320	948.84	-4.6385	-0.1977	60.867
239.328	948.84	-4.6386	-0.1977	60.876
239.337	948.84	-4.6386	-0.1977	60.885
239.345	948.84	-4.6386	-0.1977	60.894
239.353	948.84	-4.6386	-0.1977	60.903
239.362	948.84	-4.6387	-0.1977	60.913
239.370	948.84	-4.6387	-0.1977	60.922
239.378	948.84	-4.6388	-0.1977	60.930
239.387	948.84	-4.6388	-0.1977	60.938
239.395	948.84	-4.6389	-0.1977	60.947
239.403	948.84	-4.6390	-0.1977	60.956
239.412	948.84	-4.6390	-0.1977	60.964
239.420	948.84	-4.6391	-0.1977	60.973
239.428	948.84	-4.6392	-0.1977	60.982
239.437	948.84	-4.6392	-0.1977	60.991
239.445	948.84	-4.6393	-0.1978	61.001
239.453	948.84	-4.6394	-0.1978	61.010
239.462	948.85	-4.6395	-0.1978	61.019
239.470	948.85	-4.6395	-0.1978	61.027
239.478	948.85	-4.6396	-0.1978	61.035
239.487	948.85	-4.6396	-0.1978	61.043
239.495	948.85	-4.6397	-0.1978	61.051
239.503	948.85	-4.6398	-0.1978	61.058
239.512	948.85	-4.6398	-0.1978	61.064
239.520	948.85	-4.6399	-0.1978	61.070
239.528	948.85	-4.6399	-0.1978	61.074
239.537	948.85	-4.6400	-0.1978	61.078
239.545	948.85	-4.6400	-0.1978	61.083
239.553	948.85	-4.6401	-0.1978	61.088
239.562	948.85	-4.6401	-0.1978	61.093
239.570	948.85	-4.6401	-0.1978	61.099
239.578	948.85	-4.6401	-0.1978	61.104
239.587	948.85	-4.6402	-0.1978	61.110
239.595	948.85	-4.6402	-0.1978	61.115
239.603	948.85	-4.6403	-0.1978	61.121
239.612	948.85	-4.6403	-0.1978	61.127
239.620	948.85	-4.6404	-0.1978	61.133
239.628	948.85	-4.6404	-0.1978	61.139
239.637	948.85	-4.6405	-0.1978	61.144
239.645	948.85	-4.6406	-0.1978	61.150
239.653	948.85	-4.6407	-0.1978	61.157
239.662	948.85	-4.6408	-0.1978	61.163
239.670	948.85	-4.6408	-0.1978	61.170
239.678	948.85	-4.6409	-0.1978	61.177
239.687	948.85	-4.6410	-0.1978	61.186
239.695	948.85	-4.6411	-0.1978	61.193
239.703	948.85	-4.6411	-0.1978	61.201
239.712	948.85	-4.6412	-0.1978	61.210
239.720	948.85	-4.6412	-0.1978	61.218
239.728	948.85	-4.6413	-0.1978	61.228
239.737	948.86	-4.6414	-0.1978	61.238
239.745	948.86	-4.6414	-0.1978	61.247
239.753	948.86	-4.6415	-0.1978	61.256
239.762	948.86	-4.6416	-0.1978	61.265
239.770	948.86	-4.6416	-0.1978	61.275
239.778	948.86	-4.6417	-0.1979	61.284
239.787	948.86	-4.6417	-0.1979	61.293
239.795	948.86	-4.6418	-0.1979	61.301
239.803	948.86	-4.6419	-0.1979	61.309
239.812	948.86	-4.6419	-0.1979	61.316
239.820	948.86	-4.6420	-0.1979	61.322
239.828	948.86	-4.6421	-0.1979	61.328
239.837	948.86	-4.6421	-0.1979	61.334
239.845	948.86	-4.6422	-0.1979	61.339
239.853	948.86	-4.6423	-0.1979	61.343
239.862	948.86	-4.6423	-0.1979	61.348
239.870	948.86	-4.6424	-0.1979	61.352
239.878	948.86	-4.6425	-0.1979	61.357
239.887	948.86	-4.6425	-0.1979	61.363
239.895	948.86	-4.6426	-0.1979	61.368
239.903	948.86	-4.6427	-0.1979	61.373
239.912	948.86	-4.6427	-0.1979	61.378
239.920	948.86	-4.6428	-0.1979	61.383
239.928	948.86	-4.6428	-0.1979	61.389
239.937	948.86	-4.6429	-0.1979	61.395
239.945	948.86	-4.6429	-0.1979	61.401
239.953	948.86	-4.6430	-0.1979	61.409
239.962	948.86	-4.6430	-0.1979	61.416
239.970	948.86	-4.6430	-0.1979	61.423
239.978	948.86	-4.6431	-0.1979	61.430
239.987	948.86	-4.6431	-0.1979	61.437
239.995	948.86	-4.6432	-0.1979	61.443
240.003	948.86	-4.6432	-0.1979	61.450
240.012	948.86	-4.6432	-0.1979	61.455
240.020	948.86	-4.6433	-0.1979	61.460
240.028	948.87	-4.6433	-0.1979	61.465
240.037	948.87	-4.6434	-0.1979	61.469
240.045	948.87	-4.6434	-0.1979	61.473
240.053	948.87	-4.6435	-0.1979	61.476
240.062	948.87	-4.6436	-0.1979	61.480
240.070	948.87	-4.6436	-0.1979	61.484
240.078	948.87	-4.6437	-0.1979	61.488
240.087	948.87	-4.6438	-0.1979	61.492
240.095	948.87	-4.6439	-0.1979	61.496
240.103	948.87	-4.6440	-0.1979	61.501
240.112	948.87	-4.6440	-0.1980	61.505
240.120	948.87	-4.6441	-0.1980	61.511
240.128	948.87	-4.6442	-0.1980	61.516
240.137	948.87	-4.6443	-0.1980	61.521
240.145	948.87	-4.6444	-0.1980	61.527
240.153	948.87	-4.6445	-0.1980	61.532
240.162	948.87	-4.6446	-0.1980	61.538
240.170	948.87	-4.6447	-0.1980	61.543
240.178	948.87	-4.6448	-0.1980	61.548
240.187	948.87	-4.6448	-0.1980	61.553
240.195	948.87	-4.6449	-0.1980	61.558
240.203	948.87	-4.6450	-0.1980	61.563
240.212	948.87	-4.6451	-0.1980	61.569
240.220	948.87	-4.6451	-0.1980	61.576
240.228	948.87	-4.6452	-0.1980	61.583
240.237	948.87	-4.6452	-0.1980	61.591
240.245	948.87	-4.6453	-0.1980	61.599
240.253	948.87	-4.6453	-0.1980	61.607
240.262	948.87	-4.6454	-0.1980	61.616
240.270	948.87	-4.6454	-0.1980	61.624
240.278	948.87	-4.6455	-0.1980	61.633
240.287	948.87	-4.6456	-0.1980	61.641
240.295	948.87	-4.6457	-0.1980	61.648
240.303	948.87	-4.6457	-0.1980	61.656
240.312	948.87	-4.6458	-0.1980	61.663
240.320	948.87	-4.6459	-0.1980	61.671
240.328	948.87	-4.6460	-0.1980	61.679
240.337	948.87	-4.6460	-0.1980	61.689
240.345	948.87	-4.6461	-0.1980	61.699
240.353	948.87	-4.6461	-0.1980	61.709
240.362	948.87	-4.6462	-0.1980	61.718
240.370	948.87	-4.6462	-0.1980	61.728
240.378	948.87	-4.6462	-0.1980	61.737
240.387	948.87	-4.6463	-0.1980	61.746
240.395	948.87	-4.6463	-0.1980	61.754
240.403	948.87	-4.6463	-0.1981	61.763
240.412	948.87	-4.6464	-0.1981	61.770
240.420	948.87	-4.6464	-0.1981	61.775
240.428	948.87	-4.6465	-0.1981	61.780
240.437	948.88	-4.6466	-0.1981	61.786
240.445	948.88	-4.6466	-0.1981	61.791
240.453	948.88	-4.6467	-0.1981	61.796
240.462	948.88	-4.6468	-0.1981	61.801
240.470	948.88	-4.6468	-0.1981	61.806
240.478	948.88	-4.6469	-0.1981	61.811
240.487	948.88	-4.6470	-0.1981	61.816
240.495	948.88	-4.6471	-0.1981	61.821
240.503	948.88	-4.6472	-0.1981	61.827
240.512	948.88	-4.6473	-0.1981	61.833
240.520	948.88	-4.6474	-0.1981	61.838
240.528	948.88	-4.6475	-0.1981	61.844
240.537	948.88	-4.6476	-0.1981	61.850
240.545	948.88	-4.6477	-0.1981	61.857
240.553	948.88	-4.6478	-0.1981	61.863
240.562	948.88	-4.6479	-0.1981	61.870
240.570	948.88	-4.6480	-0.1981	61.875
240.578	948.88	-4.6481	-0.1981	61.881
240.587	948.88	-4.6482	-0.1981	61.886
240.595	948.88	-4.6483	-0.1981	61.892
240.603	948.88	-4.6484	-0.1981	61.897
240.612	948.88	-4.6484	-0.1981	61.902
240.620	948.88	-4.6485	-0.1981	61.907
240.628	948.88	-4.6486	-0.1981	61.911
240.637	948.88	-4.6486	-0.1981	61.916
240.645	948.88	-4.6487	-0.1982	61.920
240.653	948.88	-4.6487	-0.1982	61.925
240.662	948.88	-4.6488	-0.1982	61.931
240.670	948.88	-4.6489	-0.1982	61.938
240.678	948.88	-4.6489	-0.1982	61.945
240.687	948.88	-4.6490	-0.1982	61.953
240.695	948.88	-4.6490	-0.1982	61.961
240.703	948.88	-4.6491	-0.1982	61.969
240.712	948.88	-4.6492	-0.1982	61.976
240.720	948.88	-4.6492	-0.1982	61.984
240.728	948.88	-4.6493	-0.1982	61.992
240.737	948.88	-4.6493	-0.1982	62.000
240.745	948.88	-4.6494	-0.1982	62.008
240.753	948.88	-4.6494	-0.1982	62.015
240.762	948.88	-4.6495	-0.1982	62.021
240.770	948.88	-4.6495	-0.1982	62.028
240.778	948.88	-4.6496	-0.1982	62.034
240.787	948.88	-4.6496	-0.1982	62.041
240.795	948.88	-4.6496	-0.1982	62.047
240.803	948.88	-4.6497	-0.1982	62.054
240.812	948.88	-4.6497	-0.1982	62.059
240.820	948.89	-4.6498	-0.1982	62.064
240.828	948.89	-4.6498	-0.1982	62.070
240.837	948.89	-4.6498	-0.1982	62.075
240.845	948.89	-4.6499	-0.1982	62.080
240.853	948.89	-4.6499	-0.1982	62.085
240.862	948.89	-4.6500	-0.1982	62.089
240.870	948.89	-4.6500	-0.1982	62.093
240.878	948.89	-4.6501	-0.1982	62.097
240.887	948.89	-4.6501	-0.1982	62.102
240.895	948.89	-4.6502	-0.1982	62.107
240.903	948.89	-4.6502	-0.1982	62.112
240.912	948.89	-4.6503	-0.1982	62.117
240.920	948.89	-4.6504	-0.1982	62.122
240.928	948.89	-4.6504	-0.1982	62.127
240.937	948.89	-4.6505	-0.1982	62.132
240.945	948.89	-4.6506	-0.1982	62.138
240.953	948.89	-4.6506	-0.1982	62.144
240.962	948.89	-4.6507	-0.1982	62.151
240.970	948.89	-4.6508	-0.1982	62.158
240.978	948.89	-4.6509	-0.1982	62.164
240.987	948.89	-4.6510	-0.1982	62.170
240.995	948.89	-4.6510	-0.1983	62.176
241.003	948.89	-4.6511	-0.1983	62.182
241.012	948.89	-4.6512	-0.1983	62.188
241.020	948.89	-4.6513	-0.1983	62.194
241.028	948.89	-4.6514	-0.1983	62.200
241.037	948.89	-4.6515	-0.1983	62.204
241.045	948.89	-4.6516	-0.1983	62.208
241.053	948.89	-4.6517	-0.1983	62.213
241.062	948.89	-4.6517	-0.1983	62.217
241.070	948.89	-4.6518	-0.1983	62.221
241.078	948.89	-4.6519	-0.1983	62.225
241.087	948.89	-4.6519	-0.1983	62.230
241.095	948.89	-4.6520	-0.1983	62.234
241.103	948.89	-4.6520	-0.1983	62.238
241.112	948.89	-4.6520	-0.1983	62.243
241.120	948.89	-4.6521	-0.1983	62.248
241.128	948.89	-4.6521	-0.1983	62.252
241.137	948.89	-4.6522	-0.1983	62.257
241.145	948.89	-4.6523	-0.1983	62.261
241.153	948.89	-4.6523	-0.1983	62.265
241.162	948.89	-4.6524	-0.1983	62.269
241.170	948.89	-4.6525	-0.1983	62.273
241.178	948.89	-4.6525	-0.1983	62.276
241.187	948.89	-4.6526	-0.1983	62.280
241.195	948.89	-4.6527	-0.1983	62.285
241.203	948.89	-4.6528	-0.1983	62.290
241.212	948.89	-4.6528	-0.1983	62.295
241.220	948.89	-4.6529	-0.1983	62.301
241.228	948.90	-4.6530	-0.1983	62.308
241.237	948.90	-4.6531	-0.1983	62.314
241.245	948.90	-4.6531	-0.1983	62.320
241.253	948.90	-4.6532	-0.1983	62.326
241.262	948.90	-4.6533	-0.1983	62.332
241.270	948.90	-4.6534	-0.1983	62.338
241.278	948.90	-4.6534	-0.1984	62.343
241.287	948.90	-4.6535	-0.1984	62.348
241.295	948.90	-4.6536	-0.1984	62.353
241.303	948.90	-4.6537	-0.1984	62.359
241.312	948.90	-4.6538	-0.1984	62.364
241.320	948.90	-4.6539	-0.1984	62.370
241.328	948.90	-4.6539	-0.1984	62.377
241.337	948.90	-4.6540	-0.1984	62.383
241.345	948.90	-4.6541	-0.1984	62.389
241.353	948.90	-4.6541	-0.1984	62.396
241.362	948.90	-4.6542	-0.1984	62.404
241.370	948.90	-4.6542	-0.1984	62.411
241.378	948.90	-4.6543	-0.1984	62.418
241.387	948.90	-4.6543	-0.1984	62.427
241.395	948.90	-4.6544	-0.1984	62.435
241.403	948.90	-4.6544	-0.1984	62.443
241.412	948.90	-4.6545	-0.1984	62.452
241.420	948.90	-4.6545	-0.1984	62.459
241.428	948.90	-4.6546	-0.1984	62.467
241.437	948.90	-4.6547	-0.1984	62.473
241.445	948.90	-4.6547	-0.1984	62.480
241.453	948.90	-4.6548	-0.1984	62.485
241.462	948.90	-4.6549	-0.1984	62.490
241.470	948.90	-4.6549	-0.1984	62.493
241.478	948.90	-4.6550	-0.1984	62.495
241.487	948.90	-4.6551	-0.1984	62.497
241.495	948.90	-4.6552	-0.1984	62.499
241.503	948.90	-4.6553	-0.1984	62.501
241.512	948.90	-4.6554	-0.1984	62.504
241.520	948.90	-4.6554	-0.1984	62.508
241.528	948.90	-4.6555	-0.1984	62.512
241.537	948.90	-4.6556	-0.1984	62.516
241.545	948.90	-4.6557	-0.1984	62.522
241.553	948.90	-4.6558	-0.1985	62.528
241.562	948.90	-4.6558	-0.1985	62.534
241.570	948.90	-4.6559	-0.1985	62.542
241.578	948.90	-4.6560	-0.1985	62.549
241.587	948.90	-4.6560	-0.1985	62.557
241.595	948.90	-4.6561	-0.1985	62.563
241.603	948.90	-4.6561	-0.1985	62.570
241.612	948.90	-4.6562	-0.1985	62.576
241.620		-4.6562	-0.1985
241.628		-4.6563	-0.1985
241.637		-4.6563	-0.1985
241.645		-4.6564	-0.1985
241.653		-4.6564	-0.1985