File: PSO Kinetics/data/softwood-5Kmin_1.txt
Filename	softwood-5Kmin_1
Instrument name	0650-0369 (192.168.1.2)
Operator	ca527
rundate	1/10/2023
Sample name	softwood-5Kmin_1
proceduresegments	Select Gas: Gas 1 ; Ramp 10.00 °C/min to 110.00 °C; Isothermal 30.0 min; Ramp 5.00 °C/min to 900.00 °C; Isothermal 30.0 min; Select Gas: Gas 2 ; Ramp 10.00 °C/min to 950.00 °C; Isothermal 10.0 min; Data Off ; Equilibrate 30.00 °C
[step]
Ramp 10.00 °C/min to 110.00 °C
Time	Temperature	Weight	Weight	Heat Flow
min	°C	%	mg	mW
0.003		100.0320	3.1726
0.012		100.0729	3.1739
0.020		100.1041	3.1749
0.028		100.1200	3.1754
0.037		100.1214	3.1754
0.045	22.00	100.1119	3.1751	-28.419
0.053	22.03	100.0938	3.1745	-28.368
0.062	22.07	100.0682	3.1737	-28.324
0.070	22.11	100.0360	3.1727	-28.283
0.078	22.15	99.9977	3.1715	-28.241
0.087	22.19	99.9546	3.1701	-28.200
0.095	22.23	99.9116	3.1687	-28.162
0.103	22.27	99.8748	3.1676	-28.123
0.112	22.31	99.8480	3.1667	-28.087
0.120	22.34	99.8301	3.1662	-28.051
0.128	22.38	99.8177	3.1658	-28.015
0.137	22.42	99.8082	3.1655	-27.980
0.145	22.46	99.8001	3.1652	-27.946
0.153	22.50	99.7924	3.1650	-27.912
0.162	22.54	99.7851	3.1647	-27.878
0.170	22.57	99.7778	3.1645	-27.847
0.178	22.61	99.7706	3.1643	-27.816
0.187	22.65	99.7634	3.1640	-27.785
0.195	22.68	99.7564	3.1638	-27.753
0.203	22.72	99.7494	3.1636	-27.722
0.212	22.76	99.7425	3.1634	-27.691
0.220	22.79	99.7357	3.1632	-27.663
0.228	22.83	99.7289	3.1630	-27.633
0.237	22.87	99.7222	3.1627	-27.603
0.245	22.90	99.7155	3.1625	-27.575
0.253	22.94	99.7089	3.1623	-27.546
0.262	22.97	99.7023	3.1621	-27.517
0.270	23.01	99.6956	3.1619	-27.489
0.278	23.05	99.6890	3.1617	-27.461
0.287	23.08	99.6824	3.1615	-27.434
0.295	23.12	99.6758	3.1613	-27.406
0.303	23.15	99.6692	3.1611	-27.379
0.312	23.19	99.6625	3.1608	-27.350
0.320	23.22	99.6558	3.1606	-27.324
0.328	23.26	99.6491	3.1604	-27.298
0.337	23.29	99.6423	3.1602	-27.272
0.345	23.33	99.6355	3.1600	-27.245
0.353	23.36	99.6286	3.1598	-27.219
0.362	23.40	99.6217	3.1596	-27.194
0.370	23.43	99.6147	3.1593	-27.168
0.378	23.47	99.6077	3.1591	-27.143
0.387	23.51	99.6007	3.1589	-27.119
0.395	23.54	99.5935	3.1587	-27.096
0.403	23.58	99.5864	3.1584	-27.072
0.412	23.61	99.5792	3.1582	-27.047
0.420	23.64	99.5719	3.1580	-27.024
0.428	23.68	99.5646	3.1577	-27.000
0.437	23.72	99.5572	3.1575	-26.977
0.445	23.75	99.5497	3.1573	-26.952
0.453	23.79	99.5421	3.1570	-26.930
0.462	23.82	99.5345	3.1568	-26.907
0.470	23.86	99.5268	3.1565	-26.883
0.478	23.89	99.5189	3.1563	-26.860
0.487	23.93	99.5110	3.1560	-26.838
0.495	23.97	99.5030	3.1558	-26.818
0.503	24.00	99.4948	3.1555	-26.796
0.512	24.04	99.4866	3.1553	-26.776
0.520	24.08	99.4782	3.1550	-26.756
0.528	24.12	99.4698	3.1547	-26.737
0.537	24.16	99.4612	3.1545	-26.718
0.545	24.19	99.4526	3.1542	-26.699
0.553	24.23	99.4439	3.1539	-26.683
0.562	24.27	99.4351	3.1536	-26.668
0.570	24.31	99.4262	3.1534	-26.652
0.578	24.35	99.4173	3.1531	-26.635
0.587	24.39	99.4083	3.1528	-26.619
0.595	24.43	99.3993	3.1525	-26.604
0.603	24.47	99.3902	3.1522	-26.589
0.612	24.51	99.3810	3.1519	-26.575
0.620	24.55	99.3718	3.1516	-26.562
0.628	24.60	99.3626	3.1513	-26.549
0.637	24.64	99.3533	3.1510	-26.535
0.645	24.68	99.3440	3.1507	-26.521
0.653	24.72	99.3347	3.1505	-26.508
0.662	24.77	99.3253	3.1502	-26.495
0.670	24.81	99.3160	3.1499	-26.481
0.678	24.85	99.3066	3.1496	-26.468
0.687	24.90	99.2973	3.1493	-26.456
0.695	24.94	99.2880	3.1490	-26.444
0.703	24.99	99.2787	3.1487	-26.432
0.712	25.03	99.2694	3.1484	-26.421
0.720	25.08	99.2601	3.1481	-26.411
0.728	25.12	99.2509	3.1478	-26.401
0.737	25.17	99.2417	3.1475	-26.391
0.745	25.22	99.2325	3.1472	-26.381
0.753	25.26	99.2234	3.1469	-26.371
0.762	25.31	99.2144	3.1466	-26.359
0.770	25.36	99.2053	3.1463	-26.347
0.778	25.41	99.1964	3.1461	-26.334
0.787	25.46	99.1875	3.1458	-26.321
0.795	25.51	99.1787	3.1455	-26.308
0.803	25.56	99.1699	3.1452	-26.295
0.812	25.61	99.1612	3.1449	-26.281
0.820	25.66	99.1526	3.1447	-26.268
0.828	25.71	99.1441	3.1444	-26.255
0.837	25.76	99.1356	3.1441	-26.242
0.845	25.81	99.1272	3.1439	-26.231
0.853	25.86	99.1189	3.1436	-26.220
0.862	25.92	99.1107	3.1433	-26.208
0.870	25.97	99.1025	3.1431	-26.195
0.878	26.02	99.0943	3.1428	-26.183
0.887	26.08	99.0863	3.1426	-26.169
0.895	26.13	99.0783	3.1423	-26.155
0.903	26.19	99.0704	3.1421	-26.140
0.912	26.24	99.0626	3.1418	-26.126
0.920	26.30	99.0549	3.1416	-26.110
0.928	26.35	99.0473	3.1413	-26.092
0.937	26.41	99.0397	3.1411	-26.074
0.945	26.47	99.0322	3.1409	-26.056
0.953	26.52	99.0248	3.1406	-26.039
0.962	26.58	99.0175	3.1404	-26.020
0.970	26.64	99.0102	3.1402	-26.002
0.978	26.70	99.0030	3.1399	-25.984
0.987	26.76	98.9959	3.1397	-25.965
0.995	26.82	98.9888	3.1395	-25.945
1.003	26.88	98.9818	3.1393	-25.925
1.012	26.94	98.9748	3.1390	-25.905
1.020	27.00	98.9679	3.1388	-25.885
1.028	27.06	98.9610	3.1386	-25.863
1.037	27.12	98.9542	3.1384	-25.841
1.045	27.19	98.9475	3.1382	-25.817
1.053	27.25	98.9408	3.1380	-25.792
1.062	27.31	98.9342	3.1377	-25.766
1.070	27.38	98.9276	3.1375	-25.740
1.078	27.44	98.9210	3.1373	-25.713
1.087	27.50	98.9145	3.1371	-25.685
1.095	27.57	98.9081	3.1369	-25.656
1.103	27.64	98.9016	3.1367	-25.627
1.112	27.70	98.8952	3.1365	-25.597
1.120	27.77	98.8888	3.1363	-25.568
1.128	27.83	98.8825	3.1361	-25.537
1.137	27.90	98.8762	3.1359	-25.506
1.145	27.97	98.8698	3.1357	-25.474
1.153	28.04	98.8635	3.1355	-25.441
1.162	28.10	98.8573	3.1353	-25.407
1.170	28.17	98.8510	3.1351	-25.374
1.178	28.24	98.8448	3.1349	-25.340
1.187	28.31	98.8385	3.1347	-25.307
1.195	28.38	98.8323	3.1345	-25.271
1.203	28.45	98.8260	3.1343	-25.236
1.212	28.52	98.8198	3.1341	-25.200
1.220	28.60	98.8135	3.1339	-25.163
1.228	28.67	98.8072	3.1337	-25.125
1.237	28.74	98.8009	3.1335	-25.086
1.245	28.81	98.7946	3.1333	-25.048
1.253	28.88	98.7883	3.1331	-25.008
1.262	28.96	98.7820	3.1329	-24.969
1.270	29.03	98.7757	3.1327	-24.928
1.278	29.11	98.7694	3.1325	-24.887
1.287	29.18	98.7631	3.1323	-24.845
1.295	29.25	98.7568	3.1321	-24.804
1.303	29.33	98.7505	3.1319	-24.762
1.312	29.40	98.7441	3.1317	-24.719
1.320	29.48	98.7378	3.1315	-24.675
1.328	29.56	98.7315	3.1313	-24.631
1.337	29.63	98.7251	3.1311	-24.586
1.345	29.71	98.7187	3.1309	-24.539
1.353	29.79	98.7123	3.1307	-24.493
1.362	29.86	98.7059	3.1305	-24.447
1.370	29.94	98.6994	3.1303	-24.400
1.378	30.02	98.6929	3.1301	-24.352
1.387	30.10	98.6864	3.1299	-24.305
1.395	30.18	98.6799	3.1297	-24.257
1.403	30.25	98.6733	3.1295	-24.208
1.412	30.33	98.6668	3.1293	-24.159
1.420	30.41	98.6602	3.1291	-24.109
1.428	30.49	98.6535	3.1288	-24.060
1.437	30.57	98.6468	3.1286	-24.009
1.445	30.65	98.6401	3.1284	-23.958
1.453	30.73	98.6334	3.1282	-23.907
1.462	30.82	98.6267	3.1280	-23.854
1.470	30.90	98.6200	3.1278	-23.800
1.478	30.98	98.6132	3.1276	-23.747
1.487	31.06	98.6064	3.1274	-23.693
1.495	31.14	98.5996	3.1271	-23.640
1.503	31.23	98.5928	3.1269	-23.585
1.512	31.31	98.5859	3.1267	-23.530
1.520	31.39	98.5791	3.1265	-23.476
1.528	31.48	98.5722	3.1263	-23.421
1.537	31.56	98.5653	3.1261	-23.366
1.545	31.64	98.5585	3.1258	-23.310
1.553	31.73	98.5516	3.1256	-23.255
1.562	31.81	98.5447	3.1254	-23.200
1.570	31.90	98.5377	3.1252	-23.145
1.578	31.98	98.5308	3.1250	-23.088
1.587	32.07	98.5238	3.1247	-23.031
1.595	32.15	98.5168	3.1245	-22.974
1.603	32.24	98.5097	3.1243	-22.917
1.612	32.32	98.5027	3.1241	-22.859
1.620	32.41	98.4956	3.1238	-22.799
1.628	32.49	98.4885	3.1236	-22.741
1.637	32.58	98.4814	3.1234	-22.682
1.645	32.67	98.4743	3.1232	-22.622
1.653	32.75	98.4672	3.1229	-22.562
1.662	32.84	98.4601	3.1227	-22.503
1.670	32.93	98.4529	3.1225	-22.443
1.678	33.01	98.4458	3.1223	-22.383
1.687	33.10	98.4386	3.1220	-22.323
1.695	33.19	98.4315	3.1218	-22.262
1.703	33.28	98.4243	3.1216	-22.202
1.712	33.37	98.4171	3.1213	-22.141
1.720	33.45	98.4098	3.1211	-22.080
1.728	33.54	98.4026	3.1209	-22.018
1.737	33.63	98.3953	3.1207	-21.956
1.745	33.72	98.3880	3.1204	-21.893
1.753	33.81	98.3807	3.1202	-21.830
1.762	33.90	98.3734	3.1200	-21.767
1.770	33.99	98.3660	3.1197	-21.704
1.778	34.08	98.3586	3.1195	-21.641
1.787	34.17	98.3512	3.1193	-21.577
1.795	34.26	98.3438	3.1190	-21.514
1.803	34.35	98.3364	3.1188	-21.450
1.812	34.44	98.3290	3.1186	-21.386
1.820	34.53	98.3216	3.1183	-21.322
1.828	34.62	98.3141	3.1181	-21.259
1.837	34.71	98.3067	3.1178	-21.195
1.845	34.80	98.2992	3.1176	-21.132
1.853	34.89	98.2917	3.1174	-21.067
1.862	34.98	98.2842	3.1171	-21.003
1.870	35.07	98.2767	3.1169	-20.939
1.878	35.16	98.2692	3.1167	-20.874
1.887	35.25	98.2616	3.1164	-20.810
1.895	35.34	98.2541	3.1162	-20.744
1.903	35.44	98.2465	3.1159	-20.679
1.912	35.53	98.2389	3.1157	-20.613
1.920	35.62	98.2313	3.1155	-20.547
1.928	35.71	98.2237	3.1152	-20.481
1.937	35.80	98.2160	3.1150	-20.414
1.945	35.89	98.2084	3.1147	-20.348
1.953	35.99	98.2007	3.1145	-20.281
1.962	36.08	98.1930	3.1142	-20.214
1.970	36.17	98.1853	3.1140	-20.146
1.978	36.26	98.1775	3.1138	-20.080
1.987	36.36	98.1698	3.1135	-20.013
1.995	36.45	98.1621	3.1133	-19.946
2.003	36.54	98.1543	3.1130	-19.878
2.012	36.64	98.1466	3.1128	-19.811
2.020	36.73	98.1388	3.1125	-19.744
2.028	36.82	98.1310	3.1123	-19.676
2.037	36.91	98.1232	3.1120	-19.610
2.045	37.01	98.1155	3.1118	-19.543
2.053	37.10	98.1077	3.1115	-19.475
2.062	37.19	98.0999	3.1113	-19.409
2.070	37.28	98.0921	3.1110	-19.342
2.078	37.38	98.0843	3.1108	-19.275
2.087	37.47	98.0765	3.1105	-19.207
2.095	37.56	98.0686	3.1103	-19.139
2.103	37.65	98.0608	3.1100	-19.071
2.112	37.75	98.0529	3.1098	-19.003
2.120	37.84	98.0451	3.1096	-18.934
2.128	37.94	98.0372	3.1093	-18.865
2.137	38.03	98.0293	3.1090	-18.797
2.145	38.12	98.0214	3.1088	-18.727
2.153	38.22	98.0135	3.1085	-18.658
2.162	38.31	98.0055	3.1083	-18.588
2.170	38.40	97.9975	3.1080	-18.518
2.178	38.50	97.9896	3.1078	-18.449
2.187	38.59	97.9816	3.1075	-18.380
2.195	38.68	97.9735	3.1073	-18.311
2.203	38.78	97.9655	3.1070	-18.243
2.212	38.87	97.9574	3.1068	-18.175
2.220	38.96	97.9493	3.1065	-18.106
2.228	39.06	97.9412	3.1063	-18.037
2.237	39.15	97.9331	3.1060	-17.968
2.245	39.25	97.9250	3.1057	-17.900
2.253	39.34	97.9169	3.1055	-17.831
2.262	39.43	97.9087	3.1052	-17.762
2.270	39.53	97.9005	3.1050	-17.693
2.278	39.62	97.8923	3.1047	-17.623
2.287	39.71	97.8841	3.1044	-17.553
2.295	39.81	97.8759	3.1042	-17.484
2.303	39.90	97.8677	3.1039	-17.413
2.312	40.00	97.8594	3.1037	-17.344
2.320	40.09	97.8511	3.1034	-17.275
2.328	40.18	97.8429	3.1031	-17.205
2.337	40.28	97.8346	3.1029	-17.136
2.345	40.37	97.8262	3.1026	-17.067
2.353	40.46	97.8179	3.1023	-16.998
2.362	40.56	97.8096	3.1021	-16.929
2.370	40.65	97.8012	3.1018	-16.859
2.378	40.75	97.7928	3.1015	-16.789
2.387	40.84	97.7844	3.1013	-16.720
2.395	40.93	97.7760	3.1010	-16.650
2.403	41.03	97.7676	3.1008	-16.580
2.412	41.12	97.7592	3.1005	-16.511
2.420	41.21	97.7507	3.1002	-16.441
2.428	41.31	97.7422	3.0999	-16.370
2.437	41.40	97.7337	3.0997	-16.300
2.445	41.50	97.7253	3.0994	-16.230
2.453	41.59	97.7167	3.0991	-16.161
2.462	41.68	97.7082	3.0989	-16.092
2.470	41.78	97.6997	3.0986	-16.023
2.478	41.87	97.6912	3.0983	-15.954
2.487	41.96	97.6826	3.0981	-15.885
2.495	42.06	97.6741	3.0978	-15.816
2.503	42.15	97.6655	3.0975	-15.748
2.512	42.24	97.6570	3.0972	-15.680
2.520	42.34	97.6484	3.0970	-15.612
2.528	42.43	97.6398	3.0967	-15.544
2.537	42.52	97.6312	3.0964	-15.475
2.545	42.62	97.6226	3.0962	-15.407
2.553	42.71	97.6140	3.0959	-15.337
2.562	42.80	97.6054	3.0956	-15.268
2.570	42.89	97.5968	3.0953	-15.199
2.578	42.99	97.5881	3.0951	-15.130
2.587	43.08	97.5795	3.0948	-15.062
2.595	43.17	97.5708	3.0945	-14.993
2.603	43.27	97.5622	3.0942	-14.925
2.612	43.36	97.5535	3.0940	-14.856
2.620	43.45	97.5448	3.0937	-14.788
2.628	43.54	97.5362	3.0934	-14.720
2.637	43.64	97.5275	3.0931	-14.651
2.645	43.73	97.5188	3.0929	-14.582
2.653	43.82	97.5101	3.0926	-14.514
2.662	43.91	97.5014	3.0923	-14.446
2.670	44.01	97.4926	3.0920	-14.377
2.678	44.10	97.4839	3.0918	-14.309
2.687	44.19	97.4752	3.0915	-14.240
2.695	44.28	97.4664	3.0912	-14.171
2.703	44.37	97.4577	3.0909	-14.102
2.712	44.47	97.4489	3.0906	-14.033
2.720	44.56	97.4401	3.0904	-13.965
2.728	44.65	97.4313	3.0901	-13.898
2.737	44.74	97.4226	3.0898	-13.830
2.745	44.84	97.4138	3.0895	-13.762
2.753	44.93	97.4050	3.0892	-13.694
2.762	45.02	97.3962	3.0890	-13.627
2.770	45.11	97.3874	3.0887	-13.559
2.778	45.20	97.3787	3.0884	-13.493
2.787	45.30	97.3699	3.0881	-13.427
2.795	45.39	97.3611	3.0879	-13.361
2.803	45.48	97.3523	3.0876	-13.294
2.812	45.57	97.3435	3.0873	-13.226
2.820	45.66	97.3346	3.0870	-13.158
2.828	45.75	97.3258	3.0867	-13.091
2.837	45.85	97.3169	3.0865	-13.024
2.845	45.94	97.3080	3.0862	-12.958
2.853	46.03	97.2991	3.0859	-12.892
2.862	46.12	97.2902	3.0856	-12.826
2.870	46.21	97.2813	3.0853	-12.760
2.878	46.30	97.2724	3.0850	-12.695
2.887	46.39	97.2635	3.0848	-12.631
2.895	46.48	97.2546	3.0845	-12.567
2.903	46.57	97.2457	3.0842	-12.502
2.912	46.67	97.2368	3.0839	-12.438
2.920	46.76	97.2280	3.0836	-12.374
2.928	46.85	97.2192	3.0834	-12.308
2.937	46.94	97.2103	3.0831	-12.244
2.945	47.03	97.2015	3.0828	-12.179
2.953	47.12	97.1926	3.0825	-12.113
2.962	47.21	97.1838	3.0822	-12.048
2.970	47.30	97.1749	3.0820	-11.981
2.978	47.39	97.1660	3.0817	-11.916
2.987	47.48	97.1571	3.0814	-11.852
2.995	47.57	97.1482	3.0811	-11.788
3.003	47.66	97.1392	3.0808	-11.725
3.012	47.75	97.1303	3.0805	-11.661
3.020	47.84	97.1213	3.0803	-11.596
3.028	47.93	97.1124	3.0800	-11.532
3.037	48.02	97.1034	3.0797	-11.469
3.045	48.11	97.0944	3.0794	-11.404
3.053	48.20	97.0855	3.0791	-11.342
3.062	48.29	97.0765	3.0788	-11.279
3.070	48.38	97.0676	3.0785	-11.215
3.078	48.47	97.0586	3.0783	-11.150
3.087	48.56	97.0497	3.0780	-11.087
3.095	48.65	97.0407	3.0777	-11.023
3.103	48.74	97.0318	3.0774	-10.961
3.112	48.83	97.0228	3.0771	-10.898
3.120	48.92	97.0139	3.0768	-10.835
3.128	49.00	97.0049	3.0766	-10.773
3.137	49.09	96.9960	3.0763	-10.709
3.145	49.18	96.9871	3.0760	-10.646
3.153	49.27	96.9782	3.0757	-10.584
3.162	49.36	96.9693	3.0754	-10.521
3.170	49.45	96.9604	3.0751	-10.458
3.178	49.54	96.9515	3.0749	-10.395
3.187	49.63	96.9426	3.0746	-10.333
3.195	49.72	96.9338	3.0743	-10.271
3.203	49.81	96.9249	3.0740	-10.210
3.212	49.90	96.9160	3.0737	-10.148
3.220	49.98	96.9072	3.0735	-10.088
3.228	50.07	96.8983	3.0732	-10.027
3.237	50.16	96.8894	3.0729	-9.967
3.245	50.25	96.8805	3.0726	-9.906
3.253	50.34	96.8716	3.0723	-9.846
3.262	50.43	96.8627	3.0721	-9.785
3.270	50.51	96.8538	3.0718	-9.724
3.278	50.60	96.8450	3.0715	-9.664
3.287	50.69	96.8361	3.0712	-9.603
3.295	50.78	96.8273	3.0709	-9.541
3.303	50.87	96.8184	3.0706	-9.478
3.312	50.96	96.8096	3.0704	-9.418
3.320	51.04	96.8009	3.0701	-9.356
3.328	51.13	96.7921	3.0698	-9.297
3.337	51.22	96.7833	3.0695	-9.237
3.345	51.31	96.7745	3.0693	-9.178
3.353	51.40	96.7658	3.0690	-9.118
3.362	51.48	96.7570	3.0687	-9.058
3.370	51.57	96.7482	3.0684	-8.999
3.378	51.66	96.7395	3.0681	-8.940
3.387	51.75	96.7307	3.0679	-8.881
3.395	51.84	96.7219	3.0676	-8.822
3.403	51.92	96.7132	3.0673	-8.763
3.412	52.01	96.7044	3.0670	-8.705
3.420	52.10	96.6956	3.0668	-8.646
3.428	52.19	96.6869	3.0665	-8.588
3.437	52.27	96.6782	3.0662	-8.529
3.445	52.36	96.6695	3.0659	-8.472
3.453	52.45	96.6609	3.0656	-8.414
3.462	52.54	96.6522	3.0654	-8.357
3.470	52.62	96.6435	3.0651	-8.300
3.478	52.71	96.6349	3.0648	-8.244
3.487	52.80	96.6263	3.0646	-8.187
3.495	52.88	96.6176	3.0643	-8.130
3.503	52.97	96.6090	3.0640	-8.073
3.512	53.06	96.6004	3.0637	-8.017
3.520	53.14	96.5918	3.0635	-7.962
3.528	53.23	96.5832	3.0632	-7.905
3.537	53.32	96.5746	3.0629	-7.850
3.545	53.41	96.5660	3.0626	-7.795
3.553	53.49	96.5575	3.0624	-7.739
3.562	53.58	96.5489	3.0621	-7.683
3.570	53.67	96.5404	3.0618	-7.627
3.578	53.75	96.5319	3.0616	-7.572
3.587	53.84	96.5234	3.0613	-7.516
3.595	53.93	96.5150	3.0610	-7.460
3.603	54.01	96.5065	3.0608	-7.405
3.612	54.10	96.4981	3.0605	-7.349
3.620	54.19	96.4897	3.0602	-7.293
3.628	54.27	96.4813	3.0600	-7.236
3.637	54.36	96.4729	3.0597	-7.179
3.645	54.45	96.4645	3.0594	-7.124
3.653	54.53	96.4561	3.0592	-7.067
3.662	54.62	96.4477	3.0589	-7.011
3.670	54.71	96.4394	3.0586	-6.955
3.678	54.79	96.4310	3.0584	-6.899
3.687	54.88	96.4227	3.0581	-6.844
3.695	54.97	96.4143	3.0578	-6.788
3.703	55.05	96.4060	3.0576	-6.732
3.712	55.14	96.3977	3.0573	-6.678
3.720	55.22	96.3893	3.0570	-6.623
3.728	55.31	96.3810	3.0568	-6.570
3.737	55.40	96.3727	3.0565	-6.517
3.745	55.48	96.3644	3.0562	-6.465
3.753	55.57	96.3561	3.0560	-6.412
3.762	55.65	96.3479	3.0557	-6.358
3.770	55.74	96.3396	3.0555	-6.304
3.778	55.83	96.3314	3.0552	-6.251
3.787	55.91	96.3232	3.0549	-6.199
3.795	56.00	96.3151	3.0547	-6.147
3.803	56.08	96.3069	3.0544	-6.095
3.812	56.17	96.2988	3.0542	-6.042
3.820	56.26	96.2907	3.0539	-5.988
3.828	56.34	96.2827	3.0537	-5.934
3.837	56.43	96.2747	3.0534	-5.881
3.845	56.51	96.2667	3.0531	-5.829
3.853	56.60	96.2587	3.0529	-5.777
3.862	56.68	96.2507	3.0526	-5.725
3.870	56.77	96.2428	3.0524	-5.672
3.878	56.86	96.2348	3.0521	-5.619
3.887	56.94	96.2269	3.0519	-5.567
3.895	57.03	96.2190	3.0516	-5.517
3.903	57.11	96.2112	3.0514	-5.467
3.912	57.20	96.2033	3.0511	-5.415
3.920	57.28	96.1955	3.0509	-5.364
3.928	57.37	96.1877	3.0506	-5.313
3.937	57.46	96.1799	3.0504	-5.261
3.945	57.54	96.1721	3.0501	-5.211
3.953	57.63	96.1644	3.0499	-5.160
3.962	57.71	96.1566	3.0497	-5.109
3.970	57.80	96.1489	3.0494	-5.058
3.978	57.88	96.1412	3.0492	-5.006
3.987	57.97	96.1335	3.0489	-4.955
3.995	58.06	96.1258	3.0487	-4.905
4.003	58.14	96.1182	3.0484	-4.853
4.012	58.23	96.1105	3.0482	-4.803
4.020	58.31	96.1029	3.0480	-4.753
4.028	58.40	96.0953	3.0477	-4.703
4.037	58.48	96.0877	3.0475	-4.654
4.045	58.57	96.0801	3.0472	-4.606
4.053	58.65	96.0726	3.0470	-4.558
4.062	58.74	96.0651	3.0468	-4.508
4.070	58.82	96.0577	3.0465	-4.459
4.078	58.91	96.0502	3.0463	-4.411
4.087	58.99	96.0428	3.0460	-4.363
4.095	59.08	96.0355	3.0458	-4.314
4.103	59.17	96.0281	3.0456	-4.265
4.112	59.25	96.0207	3.0453	-4.216
4.120	59.34	96.0134	3.0451	-4.168
4.128	59.42	96.0061	3.0449	-4.120
4.137	59.51	95.9988	3.0447	-4.071
4.145	59.59	95.9916	3.0444	-4.023
4.153	59.68	95.9843	3.0442	-3.976
4.162	59.76	95.9771	3.0440	-3.927
4.170	59.85	95.9699	3.0437	-3.879
4.178	59.93	95.9627	3.0435	-3.831
4.187	60.02	95.9555	3.0433	-3.783
4.195	60.11	95.9484	3.0431	-3.734
4.203	60.19	95.9413	3.0428	-3.685
4.212	60.28	95.9342	3.0426	-3.636
4.220	60.36	95.9271	3.0424	-3.588
4.228	60.45	95.9200	3.0422	-3.540
4.237	60.53	95.9130	3.0419	-3.492
4.245	60.62	95.9060	3.0417	-3.445
4.253	60.70	95.8990	3.0415	-3.399
4.262	60.79	95.8920	3.0413	-3.351
4.270	60.87	95.8851	3.0410	-3.304
4.278	60.96	95.8782	3.0408	-3.257
4.287	61.04	95.8713	3.0406	-3.211
4.295	61.13	95.8645	3.0404	-3.165
4.303	61.21	95.8577	3.0402	-3.119
4.312	61.30	95.8509	3.0400	-3.072
4.320	61.38	95.8442	3.0397	-3.026
4.328	61.47	95.8374	3.0395	-2.980
4.337	61.55	95.8307	3.0393	-2.935
4.345	61.64	95.8240	3.0391	-2.890
4.353	61.72	95.8174	3.0389	-2.845
4.362	61.81	95.8107	3.0387	-2.800
4.370	61.89	95.8041	3.0385	-2.755
4.378	61.98	95.7975	3.0383	-2.709
4.387	62.06	95.7909	3.0381	-2.664
4.395	62.15	95.7843	3.0378	-2.620
4.403	62.23	95.7778	3.0376	-2.575
4.412	62.32	95.7713	3.0374	-2.530
4.420	62.40	95.7648	3.0372	-2.485
4.428	62.49	95.7583	3.0370	-2.440
4.437	62.57	95.7519	3.0368	-2.394
4.445	62.66	95.7455	3.0366	-2.350
4.453	62.74	95.7391	3.0364	-2.306
4.462	62.83	95.7327	3.0362	-2.263
4.470	62.91	95.7264	3.0360	-2.219
4.478	63.00	95.7201	3.0358	-2.175
4.487	63.08	95.7138	3.0356	-2.131
4.495	63.17	95.7076	3.0354	-2.087
4.503	63.25	95.7013	3.0352	-2.044
4.512	63.34	95.6951	3.0350	-2.001
4.520	63.43	95.6890	3.0348	-1.958
4.528	63.51	95.6828	3.0346	-1.914
4.537	63.60	95.6767	3.0344	-1.870
4.545	63.68	95.6706	3.0342	-1.826
4.553	63.77	95.6645	3.0340	-1.782
4.562	63.85	95.6584	3.0339	-1.739
4.570	63.94	95.6523	3.0337	-1.696
4.578	64.02	95.6463	3.0335	-1.652
4.587	64.11	95.6404	3.0333	-1.609
4.595	64.19	95.6344	3.0331	-1.567
4.603	64.28	95.6285	3.0329	-1.525
4.612	64.36	95.6226	3.0327	-1.482
4.620	64.45	95.6167	3.0325	-1.440
4.628	64.53	95.6109	3.0323	-1.398
4.637	64.62	95.6051	3.0322	-1.355
4.645	64.70	95.5993	3.0320	-1.312
4.653	64.79	95.5935	3.0318	-1.268
4.662	64.87	95.5878	3.0316	-1.226
4.670	64.96	95.5820	3.0314	-1.184
4.678	65.04	95.5763	3.0313	-1.141
4.687	65.13	95.5706	3.0311	-1.098
4.695	65.22	95.5649	3.0309	-1.057
4.703	65.30	95.5593	3.0307	-1.015
4.712	65.39	95.5537	3.0305	-0.974
4.720	65.47	95.5481	3.0304	-0.932
4.728	65.56	95.5426	3.0302	-0.892
4.737	65.64	95.5370	3.0300	-0.852
4.745	65.73	95.5315	3.0298	-0.811
4.753	65.82	95.5260	3.0297	-0.769
4.762	65.90	95.5205	3.0295	-0.727
4.770	65.99	95.5150	3.0293	-0.686
4.778	66.07	95.5096	3.0291	-0.644
4.787	66.16	95.5041	3.0290	-0.602
4.795	66.24	95.4987	3.0288	-0.561
4.803	66.33	95.4933	3.0286	-0.519
4.812	66.41	95.4879	3.0284	-0.478
4.820	66.50	95.4826	3.0283	-0.437
4.828	66.58	95.4772	3.0281	-0.397
4.837	66.67	95.4719	3.0279	-0.358
4.845	66.76	95.4666	3.0278	-0.318
4.853	66.84	95.4614	3.0276	-0.279
4.862	66.93	95.4562	3.0274	-0.241
4.870	67.01	95.4510	3.0273	-0.202
4.878	67.10	95.4458	3.0271	-0.163
4.887	67.18	95.4406	3.0269	-0.125
4.895	67.27	95.4355	3.0268	-0.086
4.903	67.35	95.4304	3.0266	-0.048
4.912	67.44	95.4253	3.0265	-0.009
4.920	67.52	95.4202	3.0263	0.030
4.928	67.61	95.4151	3.0261	0.069
4.937	67.69	95.4101	3.0260	0.106
4.945	67.78	95.4051	3.0258	0.145
4.953	67.87	95.4001	3.0257	0.183
4.962	67.95	95.3951	3.0255	0.221
4.970	68.04	95.3902	3.0253	0.258
4.978	68.12	95.3853	3.0252	0.294
4.987	68.21	95.3804	3.0250	0.331
4.995	68.29	95.3756	3.0249	0.369
5.003	68.38	95.3708	3.0247	0.406
5.012	68.46	95.3660	3.0246	0.443
5.020	68.55	95.3612	3.0244	0.481
5.028	68.63	95.3564	3.0243	0.519
5.037	68.72	95.3517	3.0241	0.556
5.045	68.81	95.3470	3.0240	0.593
5.053	68.89	95.3423	3.0238	0.631
5.062	68.98	95.3377	3.0237	0.668
5.070	69.06	95.3330	3.0235	0.705
5.078	69.15	95.3284	3.0234	0.741
5.087	69.23	95.3238	3.0232	0.778
5.095	69.32	95.3193	3.0231	0.815
5.103	69.41	95.3147	3.0230	0.851
5.112	69.49	95.3102	3.0228	0.887
5.120	69.58	95.3058	3.0227	0.924
5.128	69.66	95.3013	3.0225	0.959
5.137	69.75	95.2969	3.0224	0.995
5.145	69.84	95.2924	3.0222	1.030
5.153	69.92	95.2880	3.0221	1.066
5.162	70.01	95.2836	3.0220	1.102
5.170	70.09	95.2793	3.0218	1.137
5.178	70.18	95.2749	3.0217	1.171
5.187	70.26	95.2706	3.0216	1.206
5.195	70.35	95.2663	3.0214	1.242
5.203	70.44	95.2620	3.0213	1.277
5.212	70.52	95.2578	3.0211	1.314
5.220	70.61	95.2535	3.0210	1.350
5.228	70.69	95.2493	3.0209	1.386
5.237	70.78	95.2451	3.0207	1.421
5.245	70.87	95.2409	3.0206	1.457
5.253	70.95	95.2368	3.0205	1.493
5.262	71.04	95.2326	3.0204	1.529
5.270	71.12	95.2285	3.0202	1.565
5.278	71.21	95.2244	3.0201	1.599
5.287	71.29	95.2203	3.0200	1.633
5.295	71.38	95.2163	3.0198	1.667
5.303	71.47	95.2122	3.0197	1.702
5.312	71.55	95.2082	3.0196	1.737
5.320	71.64	95.2043	3.0195	1.772
5.328	71.72	95.2004	3.0193	1.806
5.337	71.81	95.1965	3.0192	1.839
5.345	71.90	95.1927	3.0191	1.872
5.353	71.98	95.1892	3.0190	1.907
5.362	72.07	95.1862	3.0189	1.941
5.370	72.16	95.1835	3.0188	1.976
5.378	72.24	95.1808	3.0187	2.010
5.387	72.33	95.1781	3.0186	2.043
5.395	72.41	95.1753	3.0185	2.076
5.403	72.50	95.1724	3.0184	2.108
5.412	72.59	95.1695	3.0184	2.142
5.420	72.67	95.1666	3.0183	2.176
5.428	72.76	95.1636	3.0182	2.210
5.437	72.84	95.1602	3.0181	2.242
5.445	72.93	95.1563	3.0179	2.273
5.453	73.02	95.1522	3.0178	2.304
5.462	73.10	95.1481	3.0177	2.336
5.470	73.19	95.1440	3.0175	2.368
5.478	73.27	95.1400	3.0174	2.401
5.487	73.36	95.1360	3.0173	2.434
5.495	73.45	95.1320	3.0172	2.466
5.503	73.53	95.1281	3.0170	2.497
5.512	73.62	95.1243	3.0169	2.528
5.520	73.71	95.1204	3.0168	2.560
5.528	73.79	95.1166	3.0167	2.593
5.537	73.88	95.1129	3.0166	2.627
5.545	73.97	95.1092	3.0164	2.659
5.553	74.05	95.1055	3.0163	2.690
5.562	74.14	95.1018	3.0162	2.722
5.570	74.22	95.0982	3.0161	2.753
5.578	74.31	95.0946	3.0160	2.785
5.587	74.40	95.0910	3.0159	2.816
5.595	74.48	95.0875	3.0157	2.847
5.603	74.57	95.0839	3.0156	2.879
5.612	74.65	95.0804	3.0155	2.910
5.620	74.74	95.0770	3.0154	2.940
5.628	74.83	95.0735	3.0153	2.969
5.637	74.91	95.0701	3.0152	2.999
5.645	75.00	95.0668	3.0151	3.029
5.653	75.08	95.0635	3.0150	3.058
5.662	75.17	95.0602	3.0149	3.088
5.670	75.26	95.0570	3.0148	3.117
5.678	75.34	95.0538	3.0147	3.147
5.687	75.43	95.0506	3.0146	3.176
5.695	75.52	95.0475	3.0145	3.205
5.703	75.60	95.0444	3.0144	3.234
5.712	75.69	95.0414	3.0143	3.264
5.720	75.77	95.0383	3.0142	3.294
5.728	75.86	95.0353	3.0141	3.324
5.737	75.95	95.0322	3.0140	3.354
5.745	76.03	95.0292	3.0139	3.384
5.753	76.12	95.0262	3.0138	3.413
5.762	76.21	95.0232	3.0137	3.443
5.770	76.29	95.0203	3.0136	3.474
5.778	76.38	95.0173	3.0135	3.505
5.787	76.47	95.0144	3.0134	3.534
5.795	76.55	95.0115	3.0133	3.563
5.803	76.64	95.0086	3.0132	3.592
5.812	76.73	95.0057	3.0132	3.621
5.820	76.81	95.0029	3.0131	3.649
5.828	76.90	95.0000	3.0130	3.677
5.837	76.99	94.9973	3.0129	3.706
5.845	77.07	94.9945	3.0128	3.734
5.853	77.16	94.9918	3.0127	3.762
5.862	77.25	94.9890	3.0126	3.789
5.870	77.33	94.9863	3.0125	3.816
5.878	77.42	94.9836	3.0125	3.844
5.887	77.51	94.9810	3.0124	3.872
5.895	77.59	94.9783	3.0123	3.899
5.903	77.68	94.9757	3.0122	3.927
5.912	77.76	94.9731	3.0121	3.955
5.920	77.85	94.9705	3.0120	3.983
5.928	77.94	94.9679	3.0120	4.009
5.937	78.02	94.9654	3.0119	4.035
5.945	78.11	94.9628	3.0118	4.062
5.953	78.20	94.9603	3.0117	4.090
5.962	78.28	94.9579	3.0116	4.117
5.970	78.37	94.9554	3.0116	4.144
5.978	78.46	94.9530	3.0115	4.170
5.987	78.54	94.9505	3.0114	4.196
5.995	78.63	94.9481	3.0113	4.221
6.003	78.72	94.9457	3.0113	4.248
6.012	78.80	94.9433	3.0112	4.274
6.020	78.89	94.9410	3.0111	4.300
6.028	78.97	94.9386	3.0110	4.327
6.037	79.06	94.9363	3.0110	4.351
6.045	79.15	94.9340	3.0109	4.376
6.053	79.23	94.9318	3.0108	4.402
6.062	79.32	94.9295	3.0107	4.429
6.070	79.41	94.9273	3.0107	4.455
6.078	79.49	94.9252	3.0106	4.481
6.087	79.58	94.9230	3.0105	4.507
6.095	79.67	94.9209	3.0105	4.533
6.103	79.75	94.9188	3.0104	4.558
6.112	79.84	94.9167	3.0103	4.584
6.120	79.93	94.9146	3.0103	4.610
6.128	80.01	94.9125	3.0102	4.635
6.137	80.10	94.9105	3.0101	4.660
6.145	80.19	94.9085	3.0101	4.683
6.153	80.27	94.9064	3.0100	4.707
6.162	80.36	94.9044	3.0099	4.730
6.170	80.44	94.9024	3.0099	4.754
6.178	80.53	94.9004	3.0098	4.777
6.187	80.62	94.8984	3.0098	4.801
6.195	80.70	94.8965	3.0097	4.824
6.203	80.79	94.8945	3.0096	4.846
6.212	80.88	94.8925	3.0096	4.870
6.220	80.96	94.8906	3.0095	4.893
6.228	81.05	94.8887	3.0094	4.917
6.237	81.14	94.8867	3.0094	4.940
6.245	81.22	94.8848	3.0093	4.964
6.253	81.31	94.8829	3.0093	4.988
6.262	81.40	94.8810	3.0092	5.011
6.270	81.48	94.8792	3.0091	5.034
6.278	81.57	94.8773	3.0091	5.058
6.287	81.66	94.8755	3.0090	5.082
6.295	81.74	94.8737	3.0090	5.107
6.303	81.83	94.8719	3.0089	5.131
6.312	81.91	94.8701	3.0089	5.156
6.320	82.00	94.8683	3.0088	5.180
6.328	82.09	94.8666	3.0087	5.203
6.337	82.17	94.8649	3.0087	5.226
6.345	82.26	94.8632	3.0086	5.248
6.353	82.35	94.8615	3.0086	5.270
6.362	82.43	94.8598	3.0085	5.291
6.370	82.52	94.8582	3.0085	5.312
6.378	82.61	94.8565	3.0084	5.333
6.387	82.69	94.8549	3.0084	5.354
6.395	82.78	94.8533	3.0083	5.375
6.403	82.87	94.8516	3.0083	5.396
6.412	82.95	94.8500	3.0082	5.417
6.420	83.04	94.8485	3.0082	5.438
6.428	83.13	94.8469	3.0081	5.460
6.437	83.21	94.8454	3.0081	5.482
6.445	83.30	94.8439	3.0080	5.505
6.453	83.39	94.8424	3.0080	5.527
6.462	83.47	94.8409	3.0079	5.548
6.470	83.56	94.8395	3.0079	5.570
6.478	83.65	94.8380	3.0078	5.591
6.487	83.73	94.8366	3.0078	5.613
6.495	83.82	94.8351	3.0077	5.633
6.503	83.91	94.8337	3.0077	5.654
6.512	83.99	94.8322	3.0077	5.674
6.520	84.08	94.8308	3.0076	5.696
6.528	84.17	94.8294	3.0076	5.717
6.537	84.25	94.8280	3.0075	5.738
6.545	84.34	94.8266	3.0075	5.759
6.553	84.43	94.8253	3.0074	5.779
6.562	84.51	94.8240	3.0074	5.800
6.570	84.60	94.8226	3.0073	5.820
6.578	84.68	94.8213	3.0073	5.842
6.587	84.77	94.8200	3.0073	5.863
6.595	84.86	94.8187	3.0072	5.883
6.603	84.94	94.8174	3.0072	5.904
6.612	85.03	94.8162	3.0071	5.924
6.620	85.12	94.8149	3.0071	5.944
6.628	85.20	94.8136	3.0071	5.963
6.637	85.29	94.8124	3.0070	5.983
6.645	85.38	94.8111	3.0070	6.003
6.653	85.46	94.8099	3.0069	6.022
6.662	85.55	94.8087	3.0069	6.041
6.670	85.64	94.8074	3.0069	6.059
6.678	85.72	94.8063	3.0068	6.078
6.687	85.81	94.8051	3.0068	6.095
6.695	85.90	94.8039	3.0068	6.111
6.703	85.98	94.8027	3.0067	6.129
6.712	86.07	94.8015	3.0067	6.147
6.720	86.15	94.8003	3.0066	6.164
6.728	86.24	94.7992	3.0066	6.181
6.737	86.33	94.7980	3.0066	6.199
6.745	86.41	94.7968	3.0065	6.216
6.753	86.50	94.7957	3.0065	6.234
6.762	86.59	94.7945	3.0065	6.253
6.770	86.67	94.7934	3.0064	6.271
6.778	86.76	94.7923	3.0064	6.290
6.787	86.85	94.7912	3.0064	6.308
6.795	86.93	94.7902	3.0063	6.325
6.803	87.02	94.7892	3.0063	6.341
6.812	87.11	94.7882	3.0063	6.358
6.820	87.19	94.7872	3.0062	6.375
6.828	87.28	94.7862	3.0062	6.391
6.837	87.37	94.7852	3.0062	6.408
6.845	87.45	94.7843	3.0061	6.425
6.853	87.54	94.7833	3.0061	6.442
6.862	87.63	94.7824	3.0061	6.458
6.870	87.71	94.7815	3.0060	6.475
6.878	87.80	94.7806	3.0060	6.492
6.887	87.89	94.7796	3.0060	6.510
6.895	87.97	94.7787	3.0060	6.528
6.903	88.06	94.7778	3.0059	6.546
6.912	88.14	94.7769	3.0059	6.564
6.920	88.23	94.7760	3.0059	6.582
6.928	88.32	94.7751	3.0058	6.598
6.937	88.40	94.7742	3.0058	6.615
6.945	88.49	94.7733	3.0058	6.631
6.953	88.58	94.7724	3.0058	6.648
6.962	88.66	94.7716	3.0057	6.664
6.970	88.75	94.7707	3.0057	6.679
6.978	88.84	94.7699	3.0057	6.694
6.987	88.92	94.7691	3.0056	6.709
6.995	89.01	94.7683	3.0056	6.724
7.003	89.09	94.7675	3.0056	6.740
7.012	89.18	94.7667	3.0056	6.756
7.020	89.27	94.7659	3.0055	6.771
7.028	89.35	94.7651	3.0055	6.788
7.037	89.44	94.7644	3.0055	6.803
7.045	89.53	94.7636	3.0055	6.818
7.053	89.61	94.7628	3.0055	6.833
7.062	89.70	94.7621	3.0054	6.849
7.070	89.79	94.7613	3.0054	6.865
7.078	89.87	94.7605	3.0054	6.882
7.087	89.96	94.7597	3.0054	6.897
7.095	90.05	94.7590	3.0053	6.911
7.103	90.13	94.7582	3.0053	6.925
7.112	90.22	94.7574	3.0053	6.939
7.120	90.30	94.7567	3.0053	6.954
7.128	90.39	94.7560	3.0052	6.969
7.137	90.48	94.7552	3.0052	6.985
7.145	90.56	94.7545	3.0052	7.000
7.153	90.65	94.7538	3.0052	7.014
7.162	90.74	94.7531	3.0051	7.028
7.170	90.82	94.7524	3.0051	7.041
7.178	90.91	94.7517	3.0051	7.054
7.187	91.00	94.7511	3.0051	7.068
7.195	91.08	94.7504	3.0051	7.082
7.203	91.17	94.7498	3.0050	7.095
7.212	91.25	94.7492	3.0050	7.108
7.220	91.34	94.7486	3.0050	7.121
7.228	91.43	94.7480	3.0050	7.134
7.237	91.51	94.7475	3.0050	7.147
7.245	91.60	94.7469	3.0049	7.160
7.253	91.69	94.7464	3.0049	7.174
7.262	91.77	94.7458	3.0049	7.187
7.270	91.86	94.7453	3.0049	7.201
7.278	91.94	94.7447	3.0049	7.215
7.287	92.03	94.7442	3.0049	7.229
7.295	92.12	94.7436	3.0048	7.243
7.303	92.20	94.7431	3.0048	7.256
7.312	92.29	94.7425	3.0048	7.269
7.320	92.37	94.7420	3.0048	7.281
7.328	92.46	94.7414	3.0048	7.292
7.337	92.55	94.7409	3.0048	7.303
7.345	92.63	94.7404	3.0047	7.314
7.353	92.72	94.7399	3.0047	7.325
7.362	92.80	94.7394	3.0047	7.336
7.370	92.89	94.7389	3.0047	7.347
7.378	92.98	94.7384	3.0047	7.357
7.387	93.06	94.7379	3.0047	7.368
7.395	93.15	94.7374	3.0046	7.380
7.403	93.24	94.7369	3.0046	7.392
7.412	93.32	94.7364	3.0046	7.404
7.420	93.41	94.7359	3.0046	7.416
7.428	93.49	94.7354	3.0046	7.428
7.437	93.58	94.7350	3.0046	7.440
7.445	93.67	94.7345	3.0046	7.452
7.453	93.75	94.7340	3.0045	7.464
7.462	93.84	94.7335	3.0045	7.475
7.470	93.92	94.7331	3.0045	7.485
7.478	94.01	94.7326	3.0045	7.495
7.487	94.10	94.7322	3.0045	7.506
7.495	94.18	94.7317	3.0045	7.517
7.503	94.27	94.7312	3.0045	7.527
7.512	94.36	94.7308	3.0044	7.536
7.520	94.44	94.7303	3.0044	7.546
7.528	94.53	94.7298	3.0044	7.555
7.537	94.61	94.7294	3.0044	7.565
7.545	94.70	94.7289	3.0044	7.576
7.553	94.79	94.7285	3.0044	7.587
7.562	94.87	94.7281	3.0043	7.598
7.570	94.96	94.7276	3.0043	7.608
7.578	95.04	94.7272	3.0043	7.618
7.587	95.13	94.7267	3.0043	7.628
7.595	95.22	94.7263	3.0043	7.637
7.603	95.30	94.7259	3.0043	7.647
7.612	95.39	94.7255	3.0043	7.657
7.620	95.47	94.7251	3.0043	7.665
7.628	95.56	94.7247	3.0042	7.674
7.637	95.65	94.7243	3.0042	7.682
7.645	95.73	94.7239	3.0042	7.692
7.653	95.82	94.7236	3.0042	7.701
7.662	95.90	94.7232	3.0042	7.711
7.670	95.99	94.7229	3.0042	7.721
7.678	96.08	94.7226	3.0042	7.732
7.687	96.16	94.7222	3.0042	7.743
7.695	96.25	94.7219	3.0042	7.753
7.703	96.33	94.7216	3.0041	7.763
7.712	96.42	94.7213	3.0041	7.772
7.720	96.51	94.7209	3.0041	7.780
7.728	96.59	94.7206	3.0041	7.788
7.737	96.68	94.7203	3.0041	7.796
7.745	96.76	94.7200	3.0041	7.804
7.753	96.85	94.7197	3.0041	7.812
7.762	96.94	94.7193	3.0041	7.819
7.770	97.02	94.7190	3.0041	7.826
7.778	97.11	94.7187	3.0041	7.834
7.787	97.19	94.7183	3.0040	7.842
7.795	97.28	94.7180	3.0040	7.850
7.803	97.36	94.7176	3.0040	7.858
7.812	97.45	94.7173	3.0040	7.867
7.820	97.54	94.7169	3.0040	7.875
7.828	97.62	94.7166	3.0040	7.883
7.837	97.71	94.7163	3.0040	7.891
7.845	97.79	94.7160	3.0040	7.899
7.853	97.88	94.7157	3.0040	7.906
7.862	97.97	94.7154	3.0039	7.914
7.870	98.05	94.7151	3.0039	7.921
7.878	98.14	94.7148	3.0039	7.928
7.887	98.22	94.7145	3.0039	7.936
7.895	98.31	94.7142	3.0039	7.943
7.903	98.39	94.7139	3.0039	7.950
7.912	98.48	94.7136	3.0039	7.957
7.920	98.57	94.7133	3.0039	7.964
7.928	98.65	94.7130	3.0039	7.970
7.937	98.74	94.7127	3.0039	7.976
7.945	98.82	94.7123	3.0039	7.983
7.953	98.91	94.7121	3.0038	7.989
7.962	98.99	94.7118	3.0038	7.995
7.970	99.08	94.7115	3.0038	8.001
7.978	99.17	94.7112	3.0038	8.007
7.987	99.25	94.7109	3.0038	8.014
7.995	99.34	94.7107	3.0038	8.020
8.003	99.42	94.7104	3.0038	8.027
8.012	99.51	94.7101	3.0038	8.035
8.020	99.60	94.7099	3.0038	8.042
8.028	99.68	94.7097	3.0038	8.048
8.037	99.77	94.7095	3.0038	8.055
8.045	99.85	94.7092	3.0038	8.062
8.053	99.94	94.7090	3.0037	8.068
8.062	100.02	94.7088	3.0037	8.075
8.070	100.11	94.7085	3.0037	8.081
8.078	100.20	94.7082	3.0037	8.088
8.087	100.28	94.7080	3.0037	8.094
8.095	100.37	94.7077	3.0037	8.099
8.103	100.45	94.7074	3.0037	8.105
8.112	100.54	94.7072	3.0037	8.111
8.120	100.62	94.7069	3.0037	8.116
8.128	100.71	94.7067	3.0037	8.122
8.137	100.80	94.7064	3.0037	8.127
8.145	100.88	94.7062	3.0037	8.132
8.153	100.97	94.7060	3.0036	8.138
8.162	101.05	94.7058	3.0036	8.144
8.170	101.14	94.7056	3.0036	8.149
8.178	101.22	94.7055	3.0036	8.154
8.187	101.31	94.7053	3.0036	8.160
8.195	101.40	94.7051	3.0036	8.164
8.203	101.48	94.7049	3.0036	8.170
8.212	101.57	94.7048	3.0036	8.175
8.220	101.65	94.7046	3.0036	8.180
8.228	101.74	94.7044	3.0036	8.184
8.237	101.82	94.7042	3.0036	8.189
8.245	101.91	94.7041	3.0036	8.193
8.253	102.00	94.7039	3.0036	8.197
8.262	102.08	94.7037	3.0036	8.200
8.270	102.17	94.7036	3.0036	8.204
8.278	102.25	94.7034	3.0036	8.208
8.287	102.34	94.7033	3.0036	8.211
8.295	102.42	94.7031	3.0036	8.214
8.303	102.51	94.7030	3.0036	8.218
8.312	102.60	94.7028	3.0035	8.221
8.320	102.68	94.7027	3.0035	8.225
8.328	102.77	94.7026	3.0035	8.229
8.337	102.85	94.7024	3.0035	8.233
8.345	102.94	94.7022	3.0035	8.237
8.353	103.02	94.7021	3.0035	8.242
8.362	103.11	94.7020	3.0035	8.246
8.370	103.20	94.7018	3.0035	8.251
8.378	103.28	94.7017	3.0035	8.255
8.387	103.37	94.7015	3.0035	8.259
8.395	103.45	94.7014	3.0035	8.263
8.403	103.54	94.7012	3.0035	8.266
8.412	103.62	94.7011	3.0035	8.269
8.420	103.71	94.7009	3.0035	8.272
8.428	103.79	94.7008	3.0035	8.275
8.437	103.88	94.7006	3.0035	8.277
8.445	103.96	94.7005	3.0035	8.279
8.453	104.05	94.7003	3.0035	8.281
8.462	104.13	94.7001	3.0035	8.284
8.470	104.22	94.7000	3.0035	8.286
8.478	104.31	94.6998	3.0035	8.288
8.487	104.39	94.6997	3.0034	8.290
8.495	104.48	94.6996	3.0034	8.292
8.503	104.56	94.6994	3.0034	8.295
8.512	104.65	94.6992	3.0034	8.297
8.520	104.73	94.6991	3.0034	8.300
8.528	104.82	94.6989	3.0034	8.303
8.537	104.90	94.6987	3.0034	8.305
8.545	104.99	94.6985	3.0034	8.308
8.553	105.08	94.6984	3.0034	8.311
8.562	105.16	94.6982	3.0034	8.315
8.570	105.25	94.6981	3.0034	8.319
8.578	105.33	94.6979	3.0034	8.324
8.587	105.42	94.6978	3.0034	8.328
8.595	105.51	94.6976	3.0034	8.332
8.603	105.59	94.6974	3.0034	8.335
8.612	105.68	94.6973	3.0034	8.339
8.620	105.76	94.6972	3.0034	8.343
8.628	105.85	94.6970	3.0034	8.346
8.637	105.93	94.6969	3.0034	8.349
8.645	106.02	94.6967	3.0034	8.352
8.653	106.10	94.6965	3.0033	8.354
8.662	106.19	94.6964	3.0033	8.356
8.670	106.28	94.6962	3.0033	8.359
8.678	106.36	94.6961	3.0033	8.361
8.687	106.45	94.6959	3.0033	8.363
8.695	106.53	94.6958	3.0033	8.365

[step]
Isothermal 30.0 min
Time	Temperature	Weight	Weight	Heat Flow
min	°C	%	mg	mW
8.703	106.62	94.6956	3.0033	8.366
8.728	106.87	94.6953	3.0033	8.370
8.753	107.13	94.6949	3.0033	8.376
8.778	107.39	94.6946	3.0033	8.382
8.803	107.64	94.6943	3.0033	8.390
8.828	107.89	94.6938	3.0033	8.399
8.853	108.15	94.6933	3.0032	8.413
8.878	108.39	94.6927	3.0032	8.432
8.903	108.64	94.6923	3.0032	8.456
8.928	108.88	94.6917	3.0032	8.487
8.953	109.12	94.6912	3.0032	8.521
8.978	109.35	94.6905	3.0032	8.563
9.003	109.58	94.6899	3.0031	8.607
9.028	109.80	94.6893	3.0031	8.655
9.053	110.02	94.6886	3.0031	8.707
9.078	110.24	94.6880	3.0031	8.764
9.103	110.45	94.6872	3.0031	8.824
9.128	110.65	94.6865	3.0030	8.888
9.153	110.84	94.6857	3.0030	8.954
9.178	111.03	94.6849	3.0030	9.023
9.203	111.22	94.6840	3.0030	9.095
9.228	111.39	94.6830	3.0029	9.164
9.253	111.56	94.6820	3.0029	9.241
9.278	111.73	94.6809	3.0029	9.319
9.303	111.88	94.6799	3.0028	9.402
9.328	112.04	94.6789	3.0028	9.487
9.353	112.18	94.6780	3.0028	9.572
9.378	112.32	94.6770	3.0027	9.659
9.403	112.45	94.6761	3.0027	9.747
9.428	112.57	94.6752	3.0027	9.838
9.453	112.69	94.6743	3.0026	9.929
9.478	112.80	94.6735	3.0026	10.024
9.503	112.90	94.6727	3.0026	10.118
9.528	112.99	94.6719	3.0026	10.216
9.553	113.08	94.6708	3.0025	10.313
9.578	113.16	94.6697	3.0025	10.410
9.603	113.23	94.6684	3.0025	10.505
9.628	113.30	94.6671	3.0024	10.599
9.653	113.35	94.6658	3.0024	10.692
9.678	113.41	94.6645	3.0023	10.784
9.703	113.45	94.6632	3.0023	10.874
9.728	113.49	94.6619	3.0022	10.961
9.753	113.53	94.6606	3.0022	11.046
9.778	113.56	94.6594	3.0022	11.129
9.803	113.59	94.6580	3.0021	11.208
9.828	113.61	94.6567	3.0021	11.287
9.853	113.62	94.6554	3.0020	11.359
9.878	113.63	94.6541	3.0020	11.431
9.903	113.64	94.6530	3.0020	11.496
9.928	113.64	94.6517	3.0019	11.561
9.953	113.63	94.6504	3.0019	11.625
9.978	113.62	94.6491	3.0018	11.687
10.003	113.61	94.6478	3.0018	11.746
10.028	113.60	94.6465	3.0018	11.800
10.053	113.58	94.6453	3.0017	11.849
10.078	113.56	94.6439	3.0017	11.896
10.103	113.53	94.6426	3.0016	11.942
10.128	113.50	94.6413	3.0016	11.990
10.153	113.47	94.6401	3.0016	12.029
10.178	113.44	94.6390	3.0015	12.061
10.203	113.41	94.6378	3.0015	12.083
10.228	113.38	94.6366	3.0014	12.102
10.253	113.34	94.6354	3.0014	12.122
10.278	113.31	94.6342	3.0014	12.139
10.303	113.27	94.6332	3.0013	12.154
10.328	113.23	94.6322	3.0013	12.166
10.353	113.19	94.6313	3.0013	12.175
10.378	113.16	94.6304	3.0013	12.182
10.403	113.12	94.6295	3.0012	12.187
10.428	113.08	94.6286	3.0012	12.192
10.453	113.04	94.6277	3.0012	12.196
10.478	113.00	94.6269	3.0011	12.199
10.503	112.96	94.6262	3.0011	12.201
10.528	112.92	94.6256	3.0011	12.202
10.553	112.88	94.6250	3.0011	12.202
10.578	112.84	94.6245	3.0011	12.200
10.603	112.80	94.6240	3.0010	12.197
10.628	112.76	94.6234	3.0010	12.192
10.653	112.72	94.6228	3.0010	12.183
10.678	112.69	94.6222	3.0010	12.171
10.703	112.65	94.6217	3.0010	12.156
10.728	112.61	94.6212	3.0010	12.139
10.753	112.58	94.6207	3.0009	12.122
10.778	112.54	94.6204	3.0009	12.108
10.803	112.51	94.6201	3.0009	12.092
10.828	112.47	94.6198	3.0009	12.071
10.853	112.44	94.6195	3.0009	12.048
10.878	112.41	94.6190	3.0009	12.024
10.903	112.38	94.6185	3.0009	12.004
10.928	112.35	94.6180	3.0009	11.984
10.953	112.33	94.6176	3.0008	11.963
10.978	112.30	94.6172	3.0008	11.939
11.003	112.27	94.6169	3.0008	11.914
11.028	112.25	94.6166	3.0008	11.891
11.053	112.23	94.6162	3.0008	11.865
11.078	112.20	94.6158	3.0008	11.840
11.103	112.18	94.6155	3.0008	11.817
11.128	112.16	94.6151	3.0008	11.795
11.153	112.14	94.6148	3.0008	11.775
11.178	112.13	94.6144	3.0007	11.753
11.203	112.11	94.6141	3.0007	11.729
11.228	112.10	94.6139	3.0007	11.706
11.253	112.08	94.6138	3.0007	11.684
11.278	112.07	94.6138	3.0007	11.665
11.303	112.06	94.6137	3.0007	11.644
11.328	112.05	94.6137	3.0007	11.623
11.353	112.04	94.6136	3.0007	11.603
11.378	112.03	94.6136	3.0007	11.584
11.403	112.03	94.6135	3.0007	11.565
11.428	112.02	94.6134	3.0007	11.544
11.453	112.02	94.6133	3.0007	11.521
11.478	112.02	94.6132	3.0007	11.500
11.503	112.01	94.6130	3.0007	11.480
[...]
237.345	949.68	-5.6222	-0.1783	97.317
237.353	949.68	-5.6222	-0.1783	97.328
237.362	949.68	-5.6223	-0.1783	97.339
237.370	949.68	-5.6224	-0.1783	97.350
237.378	949.68	-5.6224	-0.1783	97.360
237.387	949.68	-5.6225	-0.1783	97.371
237.395	949.68	-5.6225	-0.1783	97.383
237.403	949.68	-5.6226	-0.1783	97.397
237.412	949.68	-5.6227	-0.1783	97.410
237.420	949.68	-5.6227	-0.1783	97.422
237.428	949.68	-5.6228	-0.1783	97.433
237.437	949.68	-5.6229	-0.1783	97.445
237.445	949.68	-5.6230	-0.1783	97.456
237.453	949.68	-5.6231	-0.1783	97.469
237.462	949.68	-5.6232	-0.1783	97.481
237.470	949.68	-5.6233	-0.1783	97.493
237.478	949.69	-5.6234	-0.1783	97.504
237.487	949.69	-5.6234	-0.1784	97.515
237.495	949.69	-5.6235	-0.1784	97.527
237.503	949.69	-5.6236	-0.1784	97.539
237.512	949.69	-5.6237	-0.1784	97.551
237.520	949.69	-5.6238	-0.1784	97.562
237.528	949.69	-5.6239	-0.1784	97.574
237.537	949.69	-5.6240	-0.1784	97.586
237.545	949.69	-5.6242	-0.1784	97.597
237.553	949.69	-5.6243	-0.1784	97.610
237.562	949.69	-5.6244	-0.1784	97.622
237.570	949.69	-5.6245	-0.1784	97.632
237.578	949.69	-5.6245	-0.1784	97.642
237.587	949.69	-5.6246	-0.1784	97.651
237.595	949.69	-5.6247	-0.1784	97.661
237.603	949.69	-5.6248	-0.1784	97.671
237.612	949.69	-5.6248	-0.1784	97.682
237.620	949.69	-5.6249	-0.1784	97.691
237.628	949.69	-5.6250	-0.1784	97.701
237.637	949.70	-5.6251	-0.1784	97.710
237.645	949.70	-5.6252	-0.1784	97.719
237.653	949.70	-5.6253	-0.1784	97.728
237.662	949.70	-5.6254	-0.1784	97.737
237.670	949.70	-5.6255	-0.1784	97.746
237.678	949.70	-5.6256	-0.1784	97.755
237.687	949.70	-5.6257	-0.1784	97.765
237.695	949.70	-5.6258	-0.1784	97.774
237.703	949.70	-5.6259	-0.1784	97.784
237.712	949.70	-5.6260	-0.1784	97.793
237.720	949.70	-5.6261	-0.1784	97.802
237.728	949.70	-5.6262	-0.1784	97.811
237.737	949.70	-5.6263	-0.1784	97.820
237.745	949.70	-5.6264	-0.1784	97.829
237.753	949.70	-5.6265	-0.1784	97.838
237.762	949.70	-5.6266	-0.1785	97.846
237.770	949.70	-5.6267	-0.1785	97.854
237.778	949.70	-5.6268	-0.1785	97.861
237.787	949.70	-5.6269	-0.1785	97.869
237.795	949.70	-5.6270	-0.1785	97.877
237.803	949.70	-5.6271	-0.1785	97.884
237.812	949.71	-5.6272	-0.1785	97.892
237.820	949.71	-5.6273	-0.1785	97.901
237.828	949.71	-5.6275	-0.1785	97.910
237.837	949.71	-5.6276	-0.1785	97.919
237.845	949.71	-5.6277	-0.1785	97.929
237.853	949.71	-5.6278	-0.1785	97.939
237.862	949.71	-5.6279	-0.1785	97.948
237.870	949.71	-5.6280	-0.1785	97.958
237.878	949.71	-5.6280	-0.1785	97.967
237.887	949.71	-5.6281	-0.1785	97.977
237.895	949.71	-5.6281	-0.1785	97.986
237.903	949.71	-5.6281	-0.1785	97.994
237.912	949.71	-5.6281	-0.1785	98.002
237.920	949.71	-5.6281	-0.1785	98.009
237.928	949.71	-5.6281	-0.1785	98.016
237.937	949.71	-5.6282	-0.1785	98.023
237.945	949.71	-5.6282	-0.1785	98.031
237.953	949.71	-5.6282	-0.1785	98.039
237.962	949.71	-5.6283	-0.1785	98.046
237.970	949.71	-5.6283	-0.1785	98.054
237.978	949.71	-5.6284	-0.1785	98.062
237.987	949.71	-5.6285	-0.1785	98.070
237.995	949.72	-5.6286	-0.1785	98.078
238.003	949.72	-5.6287	-0.1785	98.087
238.012	949.72	-5.6287	-0.1785	98.095
238.020	949.72	-5.6288	-0.1785	98.104
238.028	949.72	-5.6289	-0.1785	98.112
238.037	949.72	-5.6290	-0.1785	98.121
238.045	949.72	-5.6291	-0.1785	98.130
238.053	949.72	-5.6292	-0.1785	98.140
238.062	949.72	-5.6293	-0.1785	98.150
238.070	949.72	-5.6294	-0.1785	98.159
238.078	949.72	-5.6294	-0.1785	98.169
238.087	949.72	-5.6295	-0.1785	98.178
238.095	949.72	-5.6296	-0.1785	98.187
238.103	949.72	-5.6297	-0.1785	98.197
238.112	949.72	-5.6298	-0.1786	98.206
238.120	949.72	-5.6299	-0.1786	98.215
238.128	949.72	-5.6300	-0.1786	98.223
238.137	949.72	-5.6301	-0.1786	98.231
238.145	949.72	-5.6302	-0.1786	98.239
238.153	949.72	-5.6304	-0.1786	98.246
238.162	949.72	-5.6305	-0.1786	98.254
238.170	949.72	-5.6306	-0.1786	98.261
238.178	949.72	-5.6307	-0.1786	98.268
238.187	949.72	-5.6307	-0.1786	98.274
238.195	949.72	-5.6308	-0.1786	98.280
238.203	949.72	-5.6309	-0.1786	98.286
238.212	949.72	-5.6310	-0.1786	98.293
238.220	949.73	-5.6311	-0.1786	98.299
238.228	949.73	-5.6312	-0.1786	98.306
238.237	949.73	-5.6313	-0.1786	98.314
238.245	949.73	-5.6314	-0.1786	98.322
238.253	949.73	-5.6314	-0.1786	98.330
238.262	949.73	-5.6315	-0.1786	98.338
238.270	949.73	-5.6316	-0.1786	98.346
238.278	949.73	-5.6317	-0.1786	98.355
238.287	949.73	-5.6318	-0.1786	98.363
238.295	949.73	-5.6319	-0.1786	98.372
238.303	949.73	-5.6320	-0.1786	98.381
238.312	949.73	-5.6321	-0.1786	98.389
238.320	949.73	-5.6322	-0.1786	98.397
238.328	949.73	-5.6323	-0.1786	98.405
238.337	949.73	-5.6323	-0.1786	98.414
238.345	949.73	-5.6324	-0.1786	98.422
238.353	949.73	-5.6325	-0.1786	98.431
238.362	949.73	-5.6326	-0.1786	98.440
238.370	949.73	-5.6326	-0.1786	98.448
238.378	949.73	-5.6327	-0.1786	98.456
238.387	949.73	-5.6328	-0.1786	98.464
238.395	949.73	-5.6328	-0.1786	98.472
238.403	949.73	-5.6329	-0.1786	98.480
238.412	949.73	-5.6329	-0.1787	98.488
238.420	949.73	-5.6330	-0.1787	98.496
238.428	949.73	-5.6331	-0.1787	98.504
238.437	949.73	-5.6331	-0.1787	98.511
238.445	949.73	-5.6332	-0.1787	98.520
238.453	949.74	-5.6333	-0.1787	98.529
238.462	949.74	-5.6333	-0.1787	98.539
238.470	949.74	-5.6334	-0.1787	98.549
238.478	949.74	-5.6334	-0.1787	98.559
238.487	949.74	-5.6335	-0.1787	98.569
238.495	949.74	-5.6335	-0.1787	98.580
238.503	949.74	-5.6336	-0.1787	98.590
238.512	949.74	-5.6337	-0.1787	98.600
238.520	949.74	-5.6338	-0.1787	98.610
238.528	949.74	-5.6339	-0.1787	98.620
238.537	949.74	-5.6339	-0.1787	98.628
238.545	949.74	-5.6340	-0.1787	98.636
238.553	949.74	-5.6341	-0.1787	98.643
238.562	949.74	-5.6342	-0.1787	98.650
238.570	949.74	-5.6343	-0.1787	98.658
238.578	949.74	-5.6344	-0.1787	98.665
238.587	949.74	-5.6345	-0.1787	98.673
238.595	949.74	-5.6346	-0.1787	98.681
238.603	949.74	-5.6347	-0.1787	98.688
238.612	949.74	-5.6348	-0.1787	98.696
238.620	949.74	-5.6348	-0.1787	98.704
238.628	949.74	-5.6349	-0.1787	98.712
238.637	949.74	-5.6350	-0.1787	98.720
238.645	949.74	-5.6351	-0.1787	98.727
238.653	949.74	-5.6351	-0.1787	98.735
238.662	949.74	-5.6352	-0.1787	98.742
238.670	949.74	-5.6353	-0.1787	98.750
238.678	949.74	-5.6353	-0.1787	98.756
238.687	949.74	-5.6354	-0.1787	98.762
238.695	949.74	-5.6354	-0.1787	98.768
238.703	949.75	-5.6355	-0.1787	98.774
238.712	949.75	-5.6355	-0.1787	98.780
238.720	949.75	-5.6356	-0.1787	98.786
238.728	949.75	-5.6356	-0.1787	98.792
238.737	949.75	-5.6357	-0.1787	98.798
238.745	949.75	-5.6357	-0.1787	98.805
238.753	949.75	-5.6358	-0.1787	98.811
238.762	949.75	-5.6358	-0.1787	98.818
238.770	949.75	-5.6359	-0.1787	98.825
238.778	949.75	-5.6359	-0.1787	98.833
238.787	949.75	-5.6360	-0.1787	98.841
238.795	949.75	-5.6360	-0.1787	98.848
238.803	949.75	-5.6360	-0.1787	98.856
238.812	949.75	-5.6360	-0.1787	98.863
238.820	949.75	-5.6361	-0.1788	98.870
238.828	949.75	-5.6361	-0.1788	98.877
238.837	949.75	-5.6361	-0.1788	98.884
238.845	949.75	-5.6362	-0.1788	98.890
238.853	949.75	-5.6362	-0.1788	98.897
238.862	949.75	-5.6363	-0.1788	98.903
238.870	949.75	-5.6363	-0.1788	98.910
238.878	949.75	-5.6364	-0.1788	98.916
238.887	949.75	-5.6365	-0.1788	98.922
238.895	949.75	-5.6366	-0.1788	98.928
238.903	949.75	-5.6366	-0.1788	98.935
238.912	949.75	-5.6367	-0.1788	98.943
238.920	949.75	-5.6368	-0.1788	98.950
238.928	949.75	-5.6369	-0.1788	98.957
238.937	949.76	-5.6369	-0.1788	98.965
238.945	949.76	-5.6370	-0.1788	98.973
238.953	949.76	-5.6371	-0.1788	98.982
238.962	949.76	-5.6372	-0.1788	98.991
238.970	949.76	-5.6373	-0.1788	99.001
238.978	949.76	-5.6374	-0.1788	99.010
238.987	949.76	-5.6375	-0.1788	99.017
238.995	949.76	-5.6376	-0.1788	99.025
239.003	949.76	-5.6377	-0.1788	99.032
239.012	949.76	-5.6378	-0.1788	99.039
239.020	949.76	-5.6379	-0.1788	99.045
239.028	949.76	-5.6380	-0.1788	99.051
239.037	949.76	-5.6381	-0.1788	99.056
239.045	949.76	-5.6382	-0.1788	99.061
239.053	949.76	-5.6383	-0.1788	99.067
239.062	949.76	-5.6384	-0.1788	99.072
239.070	949.76	-5.6385	-0.1788	99.078
239.078	949.76	-5.6385	-0.1788	99.083
239.087	949.76	-5.6386	-0.1788	99.089
239.095	949.76	-5.6387	-0.1788	99.096
239.103	949.76	-5.6387	-0.1788	99.103
239.112	949.76	-5.6388	-0.1788	99.111
239.120	949.76	-5.6389	-0.1788	99.118
239.128	949.76	-5.6389	-0.1788	99.126
239.137	949.76	-5.6390	-0.1788	99.133
239.145	949.76	-5.6391	-0.1788	99.140
239.153	949.76	-5.6392	-0.1788	99.148
239.162	949.76	-5.6393	-0.1789	99.156
239.170	949.76	-5.6393	-0.1789	99.166
239.178	949.76	-5.6394	-0.1789	99.175
239.187	949.76	-5.6395	-0.1789	99.183
239.195	949.76	-5.6396	-0.1789	99.191
239.203	949.76	-5.6397	-0.1789	99.199
239.212	949.76	-5.6398	-0.1789	99.207
239.220	949.77	-5.6399	-0.1789	99.214
239.228	949.77	-5.6399	-0.1789	99.221
239.237	949.77	-5.6400	-0.1789	99.228
239.245	949.77	-5.6401	-0.1789	99.234
239.253	949.77	-5.6402	-0.1789	99.239
239.262	949.77	-5.6403	-0.1789	99.243
239.270	949.77	-5.6403	-0.1789	99.247
239.278	949.77	-5.6404	-0.1789	99.251
239.287	949.77	-5.6404	-0.1789	99.255
239.295	949.77	-5.6405	-0.1789	99.259
239.303	949.77	-5.6405	-0.1789	99.263
239.312	949.77	-5.6406	-0.1789	99.267
239.320	949.77	-5.6406	-0.1789	99.271
239.328	949.77	-5.6406	-0.1789	99.277
239.337	949.77	-5.6407	-0.1789	99.282
239.345	949.77	-5.6407	-0.1789	99.288
239.353	949.77	-5.6407	-0.1789	99.294
239.362	949.77	-5.6408	-0.1789	99.300
239.370	949.77	-5.6408	-0.1789	99.307
239.378	949.77	-5.6409	-0.1789	99.314
239.387	949.77	-5.6410	-0.1789	99.322
239.395	949.77	-5.6410	-0.1789	99.330
239.403	949.77	-5.6411	-0.1789	99.337
239.412	949.77	-5.6412	-0.1789	99.344
239.420	949.77	-5.6412	-0.1789	99.351
239.428	949.77	-5.6413	-0.1789	99.359
239.437	949.77	-5.6414	-0.1789	99.366
239.445	949.77	-5.6415	-0.1789	99.374
239.453	949.77	-5.6416	-0.1789	99.382
239.462	949.77	-5.6417	-0.1789	99.389
239.470	949.77	-5.6418	-0.1789	99.396
239.478	949.77	-5.6419	-0.1789	99.403
239.487	949.77	-5.6420	-0.1789	99.410
239.495	949.77	-5.6421	-0.1789	99.418
239.503	949.77	-5.6422	-0.1789	99.424
239.512	949.77	-5.6423	-0.1789	99.430
239.520	949.77	-5.6424	-0.1790	99.436
239.528	949.77	-5.6425	-0.1790	99.442
239.537	949.77	-5.6426	-0.1790	99.448
239.545	949.77	-5.6427	-0.1790	99.454
239.553	949.78	-5.6428	-0.1790	99.460
239.562	949.78	-5.6429	-0.1790	99.466
239.570	949.78	-5.6430	-0.1790	99.472
239.578	949.78	-5.6432	-0.1790	99.478
239.587	949.78	-5.6433	-0.1790	99.484
239.595	949.78	-5.6434	-0.1790	99.491
239.603	949.78	-5.6435	-0.1790	99.498
239.612	949.78	-5.6435	-0.1790	99.505
239.620	949.78	-5.6436	-0.1790	99.511
239.628	949.78	-5.6437	-0.1790	99.518
239.637	949.78	-5.6438	-0.1790	99.525
239.645	949.78	-5.6438	-0.1790	99.531
239.653	949.78	-5.6439	-0.1790	99.537
239.662	949.78	-5.6440	-0.1790	99.542
239.670	949.78	-5.6441	-0.1790	99.547
239.678	949.78	-5.6442	-0.1790	99.552
239.687	949.78	-5.6443	-0.1790	99.557
239.695	949.78	-5.6445	-0.1790	99.562
239.703	949.78	-5.6446	-0.1790	99.566
239.712	949.78	-5.6447	-0.1790	99.571
239.720	949.78	-5.6448	-0.1790	99.576
239.728	949.78	-5.6449	-0.1790	99.580
239.737	949.78	-5.6449	-0.1790	99.585
239.745	949.78	-5.6450	-0.1790	99.590
239.753	949.78	-5.6451	-0.1790	99.594
239.762	949.78	-5.6451	-0.1790	99.599
239.770	949.78	-5.6452	-0.1790	99.604
239.778	949.78	-5.6452	-0.1790	99.610
239.787	949.78	-5.6453	-0.1790	99.616
239.795	949.78	-5.6453	-0.1790	99.622
239.803	949.78	-5.6453	-0.1790	99.628
239.812	949.78	-5.6454	-0.1790	99.635
239.820	949.78	-5.6454	-0.1790	99.641
239.828	949.78	-5.6455	-0.1790	99.648
239.837	949.78	-5.6456	-0.1791	99.655
239.845	949.78	-5.6456	-0.1791	99.661
239.853	949.78	-5.6457	-0.1791	99.667
239.862	949.78	-5.6458	-0.1791	99.672
239.870	949.78	-5.6459	-0.1791	99.677
239.878	949.78	-5.6460	-0.1791	99.681
239.887	949.79	-5.6462	-0.1791	99.686
239.895	949.79	-5.6463	-0.1791	99.691
239.903	949.79	-5.6464	-0.1791	99.695
239.912	949.79	-5.6466	-0.1791	99.700
239.920	949.79	-5.6467	-0.1791	99.706
239.928	949.79	-5.6468	-0.1791	99.711
239.937	949.79	-5.6469	-0.1791	99.717
239.945	949.79	-5.6469	-0.1791	99.723
239.953	949.79	-5.6470	-0.1791	99.729
239.962	949.79	-5.6471	-0.1791	99.734
239.970	949.79	-5.6471	-0.1791	99.740
239.978	949.79	-5.6472	-0.1791	99.745
239.987	949.79	-5.6473	-0.1791	99.751
239.995	949.79	-5.6473	-0.1791	99.756
240.003	949.79	-5.6474	-0.1791	99.760
240.012	949.79	-5.6475	-0.1791	99.765
240.020	949.79	-5.6476	-0.1791	99.770
240.028	949.79	-5.6477	-0.1791	99.776
240.037	949.79	-5.6479	-0.1791	99.782
240.045	949.79	-5.6480	-0.1791	99.788
240.053	949.79	-5.6481	-0.1791	99.793
240.062	949.79	-5.6482	-0.1791	99.799
240.070	949.79	-5.6483	-0.1791	99.805
240.078	949.79	-5.6484	-0.1791	99.811
240.087	949.79	-5.6485	-0.1791	99.816
240.095	949.79	-5.6485	-0.1791	99.821
240.103	949.79	-5.6486	-0.1791	99.826
240.112	949.79	-5.6486	-0.1791	99.830
240.120	949.79	-5.6486	-0.1791	99.834
240.128	949.79	-5.6487	-0.1792	99.838
240.137	949.79	-5.6487	-0.1792	99.842
240.145	949.79	-5.6487	-0.1792	99.847
240.153	949.79	-5.6488	-0.1792	99.851
240.162	949.79	-5.6489	-0.1792	99.857
240.170	949.79	-5.6490	-0.1792	99.862
240.178	949.79	-5.6491	-0.1792	99.868
240.187	949.79	-5.6492	-0.1792	99.874
240.195	949.79	-5.6494	-0.1792	99.880
240.203	949.79	-5.6495	-0.1792	99.886
240.212	949.79	-5.6496	-0.1792	99.892
240.220	949.79	-5.6498	-0.1792	99.899
240.228	949.79	-5.6499	-0.1792	99.904
240.237	949.79	-5.6500	-0.1792	99.910
240.245	949.79	-5.6502	-0.1792	99.914
240.253	949.79	-5.6502	-0.1792	99.918
240.262	949.79	-5.6503	-0.1792	99.922
240.270	949.79	-5.6504	-0.1792	99.926
240.278	949.79	-5.6505	-0.1792	99.929
240.287	949.79	-5.6505	-0.1792	99.932
240.295	949.79	-5.6506	-0.1792	99.936
240.303	949.79	-5.6506	-0.1792	99.939
240.312	949.80	-5.6507	-0.1792	99.942
240.320	949.80	-5.6508	-0.1792	99.946
240.328	949.80	-5.6508	-0.1792	99.950
240.337	949.80	-5.6509	-0.1792	99.954
240.345	949.80	-5.6510	-0.1792	99.958
240.353	949.80	-5.6510	-0.1792	99.962
240.362	949.80	-5.6511	-0.1792	99.967
240.370	949.80	-5.6512	-0.1792	99.971
240.378	949.80	-5.6513	-0.1792	99.975
240.387	949.80	-5.6513	-0.1792	99.980
240.395	949.80	-5.6514	-0.1792	99.985
240.403	949.80	-5.6515	-0.1792	99.989
240.412	949.80	-5.6516	-0.1792	99.994
240.420	949.80	-5.6516	-0.1792	99.999
240.428	949.80	-5.6517	-0.1792	100.004
240.437	949.80	-5.6518	-0.1792	100.009
240.445	949.80	-5.6519	-0.1793	100.015
240.453	949.80	-5.6519	-0.1793	100.020
240.462	949.80	-5.6520	-0.1793	100.027
240.470	949.80	-5.6521	-0.1793	100.033
240.478	949.80	-5.6521	-0.1793	100.039
240.487	949.80	-5.6522	-0.1793	100.046
240.495	949.80	-5.6523	-0.1793	100.053
240.503	949.80	-5.6523	-0.1793	100.060
240.512	949.80	-5.6524	-0.1793	100.067
240.520	949.80	-5.6524	-0.1793	100.074
240.528	949.80	-5.6525	-0.1793	100.081
240.537	949.80	-5.6525	-0.1793	100.088
240.545	949.80	-5.6525	-0.1793	100.095
240.553	949.80	-5.6525	-0.1793	100.102
240.562	949.80	-5.6525	-0.1793	100.109
240.570	949.80	-5.6525	-0.1793	100.115
240.578	949.80	-5.6526	-0.1793	100.121
240.587	949.80	-5.6526	-0.1793	100.128
240.595	949.80	-5.6526	-0.1793	100.134
240.603	949.80	-5.6526	-0.1793	100.140
240.612	949.80	-5.6527	-0.1793	100.145
240.620	949.80	-5.6528	-0.1793	100.150
240.628	949.80	-5.6528	-0.1793	100.155
240.637	949.80	-5.6529	-0.1793	100.160
240.645	949.80	-5.6530	-0.1793	100.166
240.653	949.80	-5.6531	-0.1793	100.171
240.662	949.80	-5.6532	-0.1793	100.177
240.670	949.80	-5.6533	-0.1793	100.182
240.678	949.80	-5.6534	-0.1793	100.188
240.687	949.80	-5.6535	-0.1793	100.194
240.695	949.80	-5.6536	-0.1793	100.201
240.703	949.80	-5.6537	-0.1793	100.207
240.712	949.80	-5.6538	-0.1793	100.213
240.720	949.80	-5.6539	-0.1793	100.219
240.728	949.80	-5.6540	-0.1793	100.224
240.737	949.80	-5.6540	-0.1793	100.229
240.745	949.80	-5.6541	-0.1793	100.234
240.753	949.80	-5.6541	-0.1793	100.239
240.762	949.80	-5.6542	-0.1793	100.243
240.770	949.80	-5.6542	-0.1793	100.248
240.778	949.81	-5.6543	-0.1793	100.252
240.787	949.81	-5.6544	-0.1793	100.256
240.795	949.81	-5.6545	-0.1793	100.260
240.803	949.81	-5.6545	-0.1793	100.264
240.812	949.81	-5.6546	-0.1793	100.268
240.820	949.81	-5.6547	-0.1793	100.273
240.828	949.81	-5.6547	-0.1793	100.278
240.837	949.81	-5.6548	-0.1793	100.283
240.845	949.81	-5.6549	-0.1793	100.288
240.853	949.81	-5.6550	-0.1794	100.292
240.862	949.81	-5.6552	-0.1794	100.297
240.870	949.81	-5.6553	-0.1794	100.301
240.878	949.81	-5.6554	-0.1794	100.306
240.887	949.81	-5.6555	-0.1794	100.311
240.895	949.81	-5.6556	-0.1794	100.315
240.903	949.81	-5.6558	-0.1794	100.320
240.912	949.81	-5.6559	-0.1794	100.325
240.920	949.81	-5.6561	-0.1794	100.329
240.928	949.81	-5.6562	-0.1794	100.334
240.937	949.81	-5.6563	-0.1794	100.339
240.945	949.81	-5.6564	-0.1794	100.344
240.953	949.81	-5.6565	-0.1794	100.349
240.962	949.81	-5.6566	-0.1794	100.354
240.970	949.81	-5.6567	-0.1794	100.360
240.978	949.81	-5.6568	-0.1794	100.366
240.987	949.81	-5.6568	-0.1794	100.372
240.995	949.81	-5.6569	-0.1794	100.377
241.003	949.81	-5.6570	-0.1794	100.382
241.012	949.81	-5.6571	-0.1794	100.388
241.020	949.81	-5.6572	-0.1794	100.394
241.028	949.81	-5.6573	-0.1794	100.400
241.037	949.81	-5.6574	-0.1794	100.406
241.045	949.81	-5.6575	-0.1794	100.411
241.053	949.81	-5.6576	-0.1794	100.417
241.062	949.81	-5.6577	-0.1794	100.423
241.070	949.81	-5.6578	-0.1794	100.429
241.078	949.81	-5.6579	-0.1794	100.435
241.087	949.81	-5.6580	-0.1794	100.441
241.095	949.81	-5.6581	-0.1794	100.446
241.103	949.81	-5.6582	-0.1795	100.452
241.112	949.81	-5.6582	-0.1795	100.457
241.120	949.81	-5.6583	-0.1795	100.463
241.128	949.81	-5.6584	-0.1795	100.469
241.137	949.81	-5.6585	-0.1795	100.474
241.145	949.81	-5.6585	-0.1795	100.478
241.153	949.81	-5.6586	-0.1795	100.482
241.162	949.81	-5.6587	-0.1795	100.486
241.170	949.81	-5.6587	-0.1795	100.490
241.178	949.81	-5.6588	-0.1795	100.494
241.187	949.81	-5.6589	-0.1795	100.499
241.195	949.81	-5.6590	-0.1795	100.504
241.203	949.81	-5.6590	-0.1795	100.508
241.212	949.81	-5.6591	-0.1795	100.512
241.220	949.81	-5.6592	-0.1795	100.517
241.228	949.81	-5.6592	-0.1795	100.521
241.237	949.81	-5.6593	-0.1795	100.525
241.245	949.81	-5.6594	-0.1795	100.530
241.253	949.81	-5.6595	-0.1795	100.534
241.262	949.81	-5.6596	-0.1795	100.538
241.270	949.81	-5.6597	-0.1795	100.543
241.278	949.81	-5.6598	-0.1795	100.547
241.287	949.81	-5.6599	-0.1795	100.551
241.295	949.82	-5.6600	-0.1795	100.555
241.303	949.82	-5.6601	-0.1795	100.560
241.312	949.82	-5.6601	-0.1795	100.566
241.320	949.82	-5.6602	-0.1795	100.572
241.328	949.82	-5.6603	-0.1795	100.577
241.337	949.82	-5.6604	-0.1795	100.583
241.345	949.82	-5.6605	-0.1795	100.588
241.353	949.82	-5.6605	-0.1795	100.593
241.362	949.82	-5.6606	-0.1795	100.599
241.370	949.82	-5.6607	-0.1795	100.605
241.378	949.82	-5.6608	-0.1795	100.610
241.387	949.82	-5.6610	-0.1795	100.615
241.395	949.82	-5.6611	-0.1795	100.620
241.403	949.82	-5.6612	-0.1795	100.624
241.412	949.82	-5.6614	-0.1796	100.629
241.420	949.82	-5.6615	-0.1796	100.633
241.428	949.82	-5.6617	-0.1796	100.638
241.437	949.82	-5.6618	-0.1796	100.642
241.445	949.82	-5.6620	-0.1796	100.647
241.453	949.82	-5.6621	-0.1796	100.652
241.462	949.82	-5.6623	-0.1796	100.656
241.470	949.82	-5.6624	-0.1796	100.661
241.478	949.82	-5.6626	-0.1796	100.667
241.487	949.82	-5.6627	-0.1796	100.673
241.495	949.82	-5.6629	-0.1796	100.678
241.503	949.82	-5.6630	-0.1796	100.684
241.512	949.82	-5.6631	-0.1796	100.689
241.520	949.82	-5.6633	-0.1796	100.694
241.528	949.82	-5.6634	-0.1796	100.698
241.537	949.82	-5.6635	-0.1796	100.703
241.545	949.82	-5.6636	-0.1796	100.707
241.553	949.82	-5.6636	-0.1796	100.711
241.562	949.82	-5.6637	-0.1796	100.714
241.570	949.82	-5.6638	-0.1796	100.718
241.578	949.82	-5.6639	-0.1796	100.721
241.587	949.82	-5.6639	-0.1796	100.724
241.595	949.82	-5.6640	-0.1796	100.728
241.603	949.82	-5.6640	-0.1796	100.731
241.612	949.82	-5.6641	-0.1796	100.735
241.620	949.82	-5.6642	-0.1796	100.739
241.628	949.82	-5.6643	-0.1796	100.743
241.637	949.82	-5.6644	-0.1796	100.747
241.645	949.82	-5.6645	-0.1797	100.751
241.653	949.82	-5.6645	-0.1797	100.755
241.662	949.82	-5.6647	-0.1797	100.760
241.670		-5.6648	-0.1797
241.678		-5.6649	-0.1797
241.687		-5.6650	-0.1797
241.695		-5.6651	-0.1797
241.703		-5.6652	-0.1797