File: PSO Kinetics/data/WF115_3.txt
Filename	WF115_3
Instrument name	0650-0369 (192.168.1.2)
Operator	ca527
rundate	11/25/2022
Sample name	WF115_3
proceduresegments	Select Gas: Gas 1 ; Ramp 10.00 °C/min to 110.00 °C; Isothermal 30.0 min; Ramp 10.00 °C/min to 900.00 °C; Isothermal 30.0 min; Select Gas: Gas 2 ; Ramp 10.00 °C/min to 950.00 °C; Isothermal 10.0 min; Data Off ; Equilibrate 30.00 °C
[step]
Ramp 10.00 °C/min to 110.00 °C
Time	Temperature	Weight	Weight	Heat Flow
min	°C	%	mg	mW
0.003		100.0691	3.1891
0.012		100.1601	3.1920
0.020		100.2487	3.1949
0.028		100.3290	3.1974
0.037		100.3973	3.1996
0.045	22.28	100.4525	3.2014	-27.263
0.053	22.32	100.4939	3.2027	-27.214
0.062	22.36	100.5219	3.2036	-27.173
0.070	22.39	100.5368	3.2040	-27.132
0.078	22.43	100.5388	3.2041	-27.093
0.087	22.47	100.5298	3.2038	-27.056
0.095	22.50	100.5168	3.2034	-27.021
0.103	22.54	100.5033	3.2030	-26.986
0.112	22.58	100.4905	3.2026	-26.952
0.120	22.62	100.4787	3.2022	-26.919
0.128	22.65	100.4674	3.2018	-26.885
0.137	22.69	100.4562	3.2015	-26.853
0.145	22.72	100.4452	3.2011	-26.821
0.153	22.76	100.4344	3.2008	-26.790
0.162	22.80	100.4237	3.2004	-26.760
0.170	22.83	100.4132	3.2001	-26.730
0.178	22.87	100.4028	3.1998	-26.700
0.187	22.90	100.3926	3.1995	-26.670
0.195	22.94	100.3826	3.1991	-26.641
0.203	22.97	100.3727	3.1988	-26.613
0.212	23.01	100.3629	3.1985	-26.586
0.220	23.04	100.3532	3.1982	-26.559
0.228	23.08	100.3437	3.1979	-26.531
0.237	23.11	100.3342	3.1976	-26.505
0.245	23.15	100.3249	3.1973	-26.479
0.253	23.18	100.3155	3.1970	-26.453
0.262	23.22	100.3063	3.1967	-26.428
0.270	23.25	100.2971	3.1964	-26.403
0.278	23.28	100.2880	3.1961	-26.378
0.287	23.32	100.2789	3.1958	-26.354
0.295	23.35	100.2698	3.1955	-26.331
0.303	23.39	100.2608	3.1952	-26.307
0.312	23.42	100.2517	3.1950	-26.284
0.320	23.45	100.2427	3.1947	-26.261
0.328	23.49	100.2337	3.1944	-26.239
0.337	23.52	100.2246	3.1941	-26.218
0.345	23.55	100.2155	3.1938	-26.196
0.353	23.59	100.2064	3.1935	-26.175
0.362	23.62	100.1973	3.1932	-26.154
0.370	23.65	100.1882	3.1929	-26.131
0.378	23.69	100.1791	3.1926	-26.110
0.387	23.72	100.1699	3.1924	-26.090
0.395	23.76	100.1607	3.1921	-26.069
0.403	23.79	100.1515	3.1918	-26.048
0.412	23.82	100.1423	3.1915	-26.028
0.420	23.86	100.1330	3.1912	-26.007
0.428	23.89	100.1237	3.1909	-25.988
0.437	23.93	100.1143	3.1906	-25.968
0.445	23.96	100.1049	3.1903	-25.950
0.453	24.00	100.0953	3.1900	-25.931
0.462	24.03	100.0857	3.1897	-25.912
0.470	24.07	100.0760	3.1894	-25.893
0.478	24.10	100.0662	3.1890	-25.876
0.487	24.14	100.0563	3.1887	-25.859
0.495	24.17	100.0464	3.1884	-25.841
0.503	24.21	100.0363	3.1881	-25.824
0.512	24.25	100.0261	3.1878	-25.807
0.520	24.28	100.0159	3.1874	-25.792
0.528	24.32	100.0056	3.1871	-25.777
0.537	24.36	99.9951	3.1868	-25.763
0.545	24.40	99.9846	3.1864	-25.749
0.553	24.43	99.9741	3.1861	-25.736
0.562	24.47	99.9635	3.1858	-25.723
0.570	24.51	99.9528	3.1854	-25.711
0.578	24.55	99.9420	3.1851	-25.699
0.587	24.59	99.9312	3.1847	-25.689
0.595	24.63	99.9203	3.1844	-25.678
0.603	24.67	99.9094	3.1841	-25.668
0.612	24.71	99.8984	3.1837	-25.658
0.620	24.75	99.8875	3.1834	-25.648
0.628	24.79	99.8764	3.1830	-25.638
0.637	24.83	99.8654	3.1826	-25.629
0.645	24.87	99.8543	3.1823	-25.619
0.653	24.91	99.8432	3.1819	-25.610
0.662	24.96	99.8321	3.1816	-25.601
0.670	25.00	99.8211	3.1812	-25.592
0.678	25.04	99.8100	3.1809	-25.583
0.687	25.09	99.7989	3.1805	-25.573
0.695	25.13	99.7879	3.1802	-25.563
0.703	25.17	99.7768	3.1798	-25.553
0.712	25.22	99.7658	3.1795	-25.544
0.720	25.26	99.7548	3.1791	-25.536
0.728	25.31	99.7439	3.1788	-25.529
0.737	25.35	99.7329	3.1784	-25.522
0.745	25.40	99.7220	3.1781	-25.516
0.753	25.45	99.7112	3.1777	-25.509
0.762	25.49	99.7004	3.1774	-25.502
0.770	25.54	99.6896	3.1770	-25.495
0.778	25.59	99.6789	3.1767	-25.489
0.787	25.64	99.6683	3.1764	-25.483
0.795	25.69	99.6577	3.1760	-25.476
0.803	25.74	99.6472	3.1757	-25.469
0.812	25.79	99.6368	3.1754	-25.461
0.820	25.84	99.6264	3.1750	-25.452
0.828	25.89	99.6160	3.1747	-25.443
0.837	25.94	99.6057	3.1744	-25.435
0.845	25.99	99.5955	3.1740	-25.428
0.853	26.04	99.5854	3.1737	-25.420
0.862	26.09	99.5753	3.1734	-25.412
0.870	26.14	99.5654	3.1731	-25.404
0.878	26.20	99.5555	3.1728	-25.395
0.887	26.25	99.5456	3.1725	-25.386
0.895	26.30	99.5359	3.1721	-25.377
0.903	26.36	99.5262	3.1718	-25.367
0.912	26.41	99.5166	3.1715	-25.356
0.920	26.47	99.5071	3.1712	-25.344
0.928	26.52	99.4977	3.1709	-25.332
0.937	26.58	99.4883	3.1706	-25.319
0.945	26.64	99.4790	3.1703	-25.305
0.953	26.69	99.4698	3.1700	-25.290
0.962	26.75	99.4606	3.1697	-25.275
0.970	26.81	99.4515	3.1695	-25.259
0.978	26.87	99.4425	3.1692	-25.243
0.987	26.93	99.4336	3.1689	-25.226
0.995	26.99	99.4248	3.1686	-25.208
1.003	27.05	99.4160	3.1683	-25.191
1.012	27.11	99.4074	3.1681	-25.173
1.020	27.17	99.3987	3.1678	-25.153
1.028	27.23	99.3901	3.1675	-25.134
1.037	27.29	99.3816	3.1672	-25.114
1.045	27.35	99.3731	3.1670	-25.094
1.053	27.42	99.3647	3.1667	-25.073
1.062	27.48	99.3563	3.1664	-25.050
1.070	27.54	99.3480	3.1662	-25.028
1.078	27.61	99.3397	3.1659	-25.005
1.087	27.67	99.3314	3.1656	-24.980
1.095	27.74	99.3232	3.1654	-24.955
1.103	27.80	99.3150	3.1651	-24.930
1.112	27.87	99.3068	3.1648	-24.903
1.120	27.93	99.2986	3.1646	-24.875
1.128	28.00	99.2905	3.1643	-24.845
1.137	28.07	99.2823	3.1641	-24.817
1.145	28.13	99.2742	3.1638	-24.788
1.153	28.20	99.2661	3.1635	-24.757
1.162	28.27	99.2580	3.1633	-24.726
1.170	28.34	99.2499	3.1630	-24.694
1.178	28.41	99.2418	3.1628	-24.662
1.187	28.48	99.2337	3.1625	-24.628
1.195	28.55	99.2256	3.1623	-24.594
1.203	28.62	99.2175	3.1620	-24.560
1.212	28.69	99.2094	3.1617	-24.527
1.220	28.76	99.2013	3.1615	-24.492
1.228	28.83	99.1932	3.1612	-24.457
1.237	28.90	99.1851	3.1610	-24.420
1.245	28.97	99.1770	3.1607	-24.384
1.253	29.05	99.1688	3.1604	-24.346
1.262	29.12	99.1607	3.1602	-24.307
1.270	29.19	99.1525	3.1599	-24.268
1.278	29.27	99.1443	3.1597	-24.230
1.287	29.34	99.1361	3.1594	-24.190
1.295	29.42	99.1279	3.1591	-24.150
1.303	29.49	99.1196	3.1589	-24.110
1.312	29.57	99.1114	3.1586	-24.068
1.320	29.65	99.1031	3.1584	-24.026
1.328	29.72	99.0948	3.1581	-23.983
1.337	29.80	99.0864	3.1578	-23.940
1.345	29.87	99.0781	3.1576	-23.897
1.353	29.95	99.0696	3.1573	-23.852
1.362	30.03	99.0612	3.1570	-23.806
1.370	30.11	99.0528	3.1567	-23.760
1.378	30.18	99.0443	3.1565	-23.712
1.387	30.26	99.0358	3.1562	-23.664
1.395	30.34	99.0272	3.1559	-23.616
1.403	30.42	99.0186	3.1557	-23.567
1.412	30.50	99.0100	3.1554	-23.518
1.420	30.58	99.0014	3.1551	-23.467
1.428	30.66	98.9927	3.1548	-23.417
1.437	30.74	98.9840	3.1546	-23.367
1.445	30.82	98.9753	3.1543	-23.316
1.453	30.90	98.9666	3.1540	-23.265
1.462	30.98	98.9578	3.1537	-23.214
1.470	31.07	98.9490	3.1534	-23.163
1.478	31.15	98.9401	3.1532	-23.109
1.487	31.23	98.9313	3.1529	-23.057
1.495	31.31	98.9224	3.1526	-23.003
1.503	31.40	98.9135	3.1523	-22.949
1.512	31.48	98.9045	3.1520	-22.895
1.520	31.56	98.8956	3.1517	-22.840
1.528	31.64	98.8866	3.1515	-22.786
1.537	31.73	98.8775	3.1512	-22.731
1.545	31.81	98.8685	3.1509	-22.675
1.553	31.90	98.8594	3.1506	-22.619
1.562	31.98	98.8503	3.1503	-22.564
1.570	32.07	98.8412	3.1500	-22.509
1.578	32.15	98.8320	3.1497	-22.452
1.587	32.24	98.8228	3.1494	-22.396
1.595	32.32	98.8136	3.1491	-22.339
1.603	32.41	98.8043	3.1488	-22.281
1.612	32.50	98.7950	3.1485	-22.222
1.620	32.58	98.7857	3.1482	-22.164
1.628	32.67	98.7763	3.1479	-22.106
1.637	32.76	98.7669	3.1476	-22.048
1.645	32.84	98.7575	3.1473	-21.989
1.653	32.93	98.7480	3.1470	-21.929
1.662	33.02	98.7384	3.1467	-21.870
1.670	33.10	98.7289	3.1464	-21.811
1.678	33.19	98.7193	3.1461	-21.750
1.687	33.28	98.7097	3.1458	-21.689
1.695	33.37	98.7001	3.1455	-21.629
1.703	33.46	98.6905	3.1452	-21.568
1.712	33.54	98.6808	3.1449	-21.507
1.720	33.63	98.6711	3.1446	-21.446
1.728	33.72	98.6614	3.1443	-21.384
1.737	33.81	98.6517	3.1440	-21.321
1.745	33.90	98.6419	3.1437	-21.259
1.753	33.99	98.6321	3.1433	-21.195
1.762	34.08	98.6223	3.1430	-21.132
1.770	34.17	98.6124	3.1427	-21.068
1.778	34.26	98.6025	3.1424	-21.005
1.787	34.35	98.5926	3.1421	-20.941
1.795	34.44	98.5827	3.1418	-20.877
1.803	34.53	98.5727	3.1415	-20.812
1.812	34.62	98.5627	3.1411	-20.748
1.820	34.71	98.5527	3.1408	-20.684
1.828	34.80	98.5427	3.1405	-20.620
1.837	34.89	98.5327	3.1402	-20.556
1.845	34.98	98.5227	3.1399	-20.491
1.853	35.07	98.5126	3.1395	-20.427
1.862	35.16	98.5025	3.1392	-20.362
1.870	35.26	98.4924	3.1389	-20.297
1.878	35.35	98.4823	3.1386	-20.232
1.887	35.44	98.4721	3.1382	-20.167
1.895	35.53	98.4620	3.1379	-20.102
1.903	35.62	98.4518	3.1376	-20.037
1.912	35.71	98.4415	3.1373	-19.971
1.920	35.81	98.4313	3.1369	-19.907
1.928	35.90	98.4211	3.1366	-19.841
1.937	35.99	98.4108	3.1363	-19.775
1.945	36.08	98.4005	3.1360	-19.709
1.953	36.17	98.3902	3.1356	-19.642
1.962	36.27	98.3799	3.1353	-19.575
1.970	36.36	98.3695	3.1350	-19.508
1.978	36.45	98.3592	3.1346	-19.440
1.987	36.54	98.3488	3.1343	-19.372
1.995	36.64	98.3384	3.1340	-19.305
2.003	36.73	98.3279	3.1337	-19.237
2.012	36.82	98.3175	3.1333	-19.169
2.020	36.92	98.3071	3.1330	-19.101
2.028	37.01	98.2966	3.1327	-19.033
2.037	37.10	98.2861	3.1323	-18.965
2.045	37.20	98.2756	3.1320	-18.898
2.053	37.29	98.2651	3.1316	-18.830
2.062	37.38	98.2545	3.1313	-18.762
2.070	37.48	98.2439	3.1310	-18.694
2.078	37.57	98.2333	3.1306	-18.625
2.087	37.66	98.2227	3.1303	-18.556
2.095	37.76	98.2120	3.1300	-18.488
2.103	37.85	98.2014	3.1296	-18.420
2.112	37.94	98.1907	3.1293	-18.352
2.120	38.04	98.1800	3.1289	-18.283
2.128	38.13	98.1693	3.1286	-18.213
2.137	38.22	98.1586	3.1283	-18.144
2.145	38.32	98.1478	3.1279	-18.075
2.153	38.41	98.1371	3.1276	-18.005
2.162	38.51	98.1263	3.1272	-17.937
2.170	38.60	98.1156	3.1269	-17.869
2.178	38.69	98.1048	3.1265	-17.799
2.187	38.79	98.0940	3.1262	-17.729
2.195	38.88	98.0831	3.1258	-17.658
2.203	38.98	98.0723	3.1255	-17.586
2.212	39.07	98.0614	3.1252	-17.516
2.220	39.17	98.0505	3.1248	-17.446
2.228	39.26	98.0396	3.1245	-17.377
2.237	39.35	98.0286	3.1241	-17.307
2.245	39.45	98.0177	3.1238	-17.236
2.253	39.54	98.0067	3.1234	-17.166
2.262	39.64	97.9957	3.1231	-17.097
2.270	39.73	97.9847	3.1227	-17.028
2.278	39.82	97.9737	3.1224	-16.960
2.287	39.92	97.9627	3.1220	-16.892
2.295	40.01	97.9516	3.1217	-16.824
2.303	40.11	97.9405	3.1213	-16.755
2.312	40.20	97.9295	3.1210	-16.685
2.320	40.29	97.9184	3.1206	-16.616
2.328	40.39	97.9072	3.1202	-16.546
2.337	40.48	97.8961	3.1199	-16.477
2.345	40.58	97.8850	3.1195	-16.406
2.353	40.67	97.8738	3.1192	-16.335
2.362	40.77	97.8626	3.1188	-16.265
2.370	40.86	97.8514	3.1185	-16.195
2.378	40.95	97.8402	3.1181	-16.126
2.387	41.05	97.8290	3.1177	-16.057
2.395	41.14	97.8178	3.1174	-15.988
2.403	41.24	97.8065	3.1170	-15.919
2.412	41.33	97.7953	3.1167	-15.851
2.420	41.42	97.7840	3.1163	-15.782
2.428	41.52	97.7727	3.1160	-15.713
2.437	41.61	97.7614	3.1156	-15.644
2.445	41.70	97.7500	3.1152	-15.576
2.453	41.80	97.7387	3.1149	-15.506
2.462	41.89	97.7273	3.1145	-15.437
2.470	41.99	97.7159	3.1141	-15.368
2.478	42.08	97.7045	3.1138	-15.299
2.487	42.17	97.6931	3.1134	-15.228
2.495	42.27	97.6816	3.1131	-15.159
2.503	42.36	97.6702	3.1127	-15.090
2.512	42.45	97.6587	3.1123	-15.021
2.520	42.55	97.6472	3.1120	-14.952
2.528	42.64	97.6357	3.1116	-14.882
2.537	42.73	97.6242	3.1112	-14.813
2.545	42.83	97.6127	3.1109	-14.743
2.553	42.92	97.6012	3.1105	-14.671
2.562	43.02	97.5896	3.1101	-14.601
2.570	43.11	97.5781	3.1098	-14.532
2.578	43.20	97.5665	3.1094	-14.462
2.587	43.30	97.5549	3.1090	-14.391
2.595	43.39	97.5432	3.1086	-14.322
2.603	43.48	97.5316	3.1083	-14.253
2.612	43.58	97.5200	3.1079	-14.183
2.620	43.67	97.5083	3.1075	-14.113
2.628	43.76	97.4966	3.1072	-14.044
2.637	43.85	97.4849	3.1068	-13.975
2.645	43.95	97.4732	3.1064	-13.906
2.653	44.04	97.4616	3.1060	-13.837
2.662	44.13	97.4499	3.1057	-13.769
2.670	44.23	97.4382	3.1053	-13.701
2.678	44.32	97.4265	3.1049	-13.632
2.687	44.41	97.4148	3.1045	-13.563
2.695	44.50	97.4030	3.1042	-13.496
2.703	44.59	97.3913	3.1038	-13.428
2.712	44.69	97.3795	3.1034	-13.360
2.720	44.78	97.3678	3.1031	-13.292
2.728	44.87	97.3560	3.1027	-13.225
2.737	44.96	97.3442	3.1023	-13.158
2.745	45.06	97.3325	3.1019	-13.090
2.753	45.15	97.3207	3.1015	-13.021
2.762	45.24	97.3089	3.1012	-12.953
2.770	45.33	97.2971	3.1008	-12.886
2.778	45.43	97.2853	3.1004	-12.818
2.787	45.52	97.2735	3.1000	-12.750
2.795	45.61	97.2617	3.0997	-12.682
2.803	45.70	97.2499	3.0993	-12.614
2.812	45.79	97.2381	3.0989	-12.547
2.820	45.88	97.2263	3.0985	-12.479
2.828	45.98	97.2145	3.0982	-12.412
2.837	46.07	97.2027	3.0978	-12.347
2.845	46.16	97.1909	3.0974	-12.280
2.853	46.25	97.1791	3.0970	-12.214
2.862	46.34	97.1673	3.0967	-12.148
2.870	46.43	97.1555	3.0963	-12.081
2.878	46.52	97.1436	3.0959	-12.014
2.887	46.62	97.1318	3.0955	-11.948
2.895	46.71	97.1200	3.0952	-11.882
2.903	46.80	97.1081	3.0948	-11.815
2.912	46.89	97.0963	3.0944	-11.749
2.920	46.98	97.0844	3.0940	-11.682
2.928	47.07	97.0726	3.0936	-11.616
2.937	47.16	97.0607	3.0933	-11.550
2.945	47.25	97.0488	3.0929	-11.483
2.953	47.34	97.0370	3.0925	-11.417
2.962	47.44	97.0251	3.0921	-11.352
2.970	47.53	97.0132	3.0918	-11.287
2.978	47.62	97.0014	3.0914	-11.221
2.987	47.71	96.9895	3.0910	-11.157
2.995	47.80	96.9776	3.0906	-11.092
3.003	47.89	96.9658	3.0902	-11.027
3.012	47.98	96.9539	3.0899	-10.961
3.020	48.07	96.9420	3.0895	-10.897
3.028	48.16	96.9301	3.0891	-10.833
3.037	48.25	96.9182	3.0887	-10.768
3.045	48.34	96.9063	3.0883	-10.704
3.053	48.43	96.8944	3.0880	-10.639
3.062	48.52	96.8825	3.0876	-10.576
3.070	48.61	96.8706	3.0872	-10.512
3.078	48.70	96.8586	3.0868	-10.447
3.087	48.79	96.8467	3.0864	-10.384
3.095	48.88	96.8347	3.0861	-10.322
3.103	48.97	96.8228	3.0857	-10.258
3.112	49.06	96.8109	3.0853	-10.195
3.120	49.15	96.7989	3.0849	-10.132
3.128	49.24	96.7870	3.0845	-10.070
3.137	49.33	96.7750	3.0842	-10.008
3.145	49.41	96.7631	3.0838	-9.944
3.153	49.50	96.7512	3.0834	-9.881
3.162	49.59	96.7393	3.0830	-9.818
3.170	49.68	96.7274	3.0826	-9.755
3.178	49.77	96.7155	3.0823	-9.692
3.187	49.86	96.7036	3.0819	-9.630
3.195	49.95	96.6917	3.0815	-9.567
3.203	50.04	96.6799	3.0811	-9.504
3.212	50.13	96.6680	3.0807	-9.442
3.220	50.22	96.6562	3.0804	-9.380
3.228	50.30	96.6443	3.0800	-9.319
3.237	50.39	96.6324	3.0796	-9.258
3.245	50.48	96.6206	3.0792	-9.197
3.253	50.57	96.6088	3.0789	-9.136
3.262	50.66	96.5970	3.0785	-9.074
3.270	50.75	96.5852	3.0781	-9.012
3.278	50.84	96.5734	3.0777	-8.952
3.287	50.93	96.5616	3.0774	-8.892
3.295	51.01	96.5498	3.0770	-8.831
3.303	51.10	96.5380	3.0766	-8.770
3.312	51.19	96.5261	3.0762	-8.709
3.320	51.28	96.5143	3.0759	-8.648
3.328	51.37	96.5025	3.0755	-8.586
3.337	51.45	96.4907	3.0751	-8.526
3.345	51.54	96.4789	3.0747	-8.466
3.353	51.63	96.4670	3.0743	-8.407
3.362	51.72	96.4553	3.0740	-8.346
3.370	51.81	96.4435	3.0736	-8.287
3.378	51.89	96.4317	3.0732	-8.227
3.387	51.98	96.4199	3.0728	-8.169
3.395	52.07	96.4082	3.0725	-8.109
3.403	52.16	96.3964	3.0721	-8.050
3.412	52.24	96.3847	3.0717	-7.993
3.420	52.33	96.3730	3.0713	-7.934
3.428	52.42	96.3612	3.0710	-7.875
3.437	52.51	96.3495	3.0706	-7.818
3.445	52.59	96.3378	3.0702	-7.760
3.453	52.68	96.3260	3.0699	-7.702
3.462	52.77	96.3143	3.0695	-7.645
3.470	52.86	96.3026	3.0691	-7.587
3.478	52.94	96.2909	3.0687	-7.528
3.487	53.03	96.2792	3.0684	-7.471
3.495	53.12	96.2675	3.0680	-7.413
3.503	53.21	96.2559	3.0676	-7.356
3.512	53.29	96.2442	3.0672	-7.298
3.520	53.38	96.2325	3.0669	-7.240
3.528	53.47	96.2209	3.0665	-7.183
3.537	53.55	96.2093	3.0661	-7.125
3.545	53.64	96.1976	3.0658	-7.068
3.553	53.73	96.1860	3.0654	-7.010
3.562	53.81	96.1744	3.0650	-6.954
3.570	53.90	96.1628	3.0646	-6.897
3.578	53.99	96.1512	3.0643	-6.840
3.587	54.07	96.1396	3.0639	-6.784
3.595	54.16	96.1281	3.0635	-6.728
3.603	54.25	96.1165	3.0632	-6.672
3.612	54.33	96.1049	3.0628	-6.617
3.620	54.42	96.0934	3.0624	-6.562
3.628	54.51	96.0818	3.0621	-6.506
3.637	54.59	96.0703	3.0617	-6.451
3.645	54.68	96.0588	3.0613	-6.396
3.653	54.77	96.0473	3.0610	-6.342
3.662	54.85	96.0358	3.0606	-6.287
3.670	54.94	96.0243	3.0602	-6.231
3.678	55.02	96.0128	3.0599	-6.177
3.687	55.11	96.0014	3.0595	-6.122
3.695	55.20	95.9900	3.0591	-6.068
3.703	55.28	95.9785	3.0588	-6.014
3.712	55.37	95.9671	3.0584	-5.960
3.720	55.46	95.9558	3.0581	-5.906
3.728	55.54	95.9444	3.0577	-5.853
3.737	55.63	95.9331	3.0573	-5.798
3.745	55.71	95.9217	3.0570	-5.744
3.753	55.80	95.9104	3.0566	-5.691
3.762	55.89	95.8991	3.0562	-5.636
3.770	55.97	95.8878	3.0559	-5.581
3.778	56.06	95.8766	3.0555	-5.527
3.787	56.15	95.8653	3.0552	-5.473
3.795	56.23	95.8540	3.0548	-5.419
3.803	56.32	95.8428	3.0544	-5.366
3.812	56.40	95.8315	3.0541	-5.313
3.820	56.49	95.8203	3.0537	-5.261
3.828	56.57	95.8091	3.0534	-5.210
3.837	56.66	95.7979	3.0530	-5.157
3.845	56.75	95.7867	3.0527	-5.105
3.853	56.83	95.7755	3.0523	-5.053
3.862	56.92	95.7644	3.0520	-5.001
3.870	57.00	95.7533	3.0516	-4.949
3.878	57.09	95.7421	3.0512	-4.896
3.887	57.18	95.7310	3.0509	-4.844
3.895	57.26	95.7200	3.0505	-4.792
3.903	57.35	95.7089	3.0502	-4.741
3.912	57.43	95.6979	3.0498	-4.689
3.920	57.52	95.6868	3.0495	-4.639
3.928	57.60	95.6758	3.0491	-4.589
3.937	57.69	95.6648	3.0488	-4.540
3.945	57.77	95.6538	3.0484	-4.491
3.953	57.86	95.6428	3.0481	-4.441
3.962	57.94	95.6318	3.0477	-4.392
3.970	58.03	95.6209	3.0474	-4.342
3.978	58.12	95.6099	3.0470	-4.292
3.987	58.20	95.5989	3.0467	-4.241
3.995	58.29	95.5880	3.0463	-4.191
4.003	58.37	95.5771	3.0460	-4.141
4.012	58.46	95.5662	3.0456	-4.091
4.020	58.54	95.5553	3.0453	-4.040
4.028	58.63	95.5444	3.0449	-3.990
4.037	58.71	95.5335	3.0446	-3.940
4.045	58.80	95.5227	3.0442	-3.890
4.053	58.88	95.5118	3.0439	-3.841
4.062	58.97	95.5010	3.0436	-3.792
4.070	59.05	95.4903	3.0432	-3.743
4.078	59.14	95.4795	3.0429	-3.694
4.087	59.22	95.4687	3.0425	-3.646
4.095	59.31	95.4580	3.0422	-3.597
4.103	59.39	95.4473	3.0418	-3.548
4.112	59.48	95.4365	3.0415	-3.500
4.120	59.57	95.4258	3.0412	-3.452
4.128	59.65	95.4152	3.0408	-3.403
4.137	59.74	95.4045	3.0405	-3.354
4.145	59.82	95.3939	3.0401	-3.306
4.153	59.91	95.3833	3.0398	-3.259
4.162	59.99	95.3728	3.0395	-3.212
4.170	60.08	95.3622	3.0391	-3.164
4.178	60.16	95.3517	3.0388	-3.118
4.187	60.25	95.3412	3.0385	-3.071
4.195	60.33	95.3308	3.0381	-3.023
4.203	60.42	95.3203	3.0378	-2.976
4.212	60.50	95.3098	3.0375	-2.930
4.220	60.59	95.2994	3.0371	-2.884
4.228	60.67	95.2889	3.0368	-2.837
4.237	60.76	95.2785	3.0365	-2.790
4.245	60.84	95.2681	3.0361	-2.742
4.253	60.93	95.2577	3.0358	-2.696
4.262	61.01	95.2473	3.0355	-2.650
4.270	61.10	95.2370	3.0351	-2.605
4.278	61.18	95.2267	3.0348	-2.559
4.287	61.27	95.2164	3.0345	-2.513
4.295	61.35	95.2061	3.0342	-2.466
4.303	61.44	95.1959	3.0338	-2.420
4.312	61.52	95.1857	3.0335	-2.374
4.320	61.61	95.1755	3.0332	-2.329
4.328	61.69	95.1653	3.0329	-2.283
4.337	61.78	95.1552	3.0325	-2.235
4.345	61.87	95.1451	3.0322	-2.188
4.353	61.95	95.1350	3.0319	-2.142
4.362	62.04	95.1249	3.0316	-2.095
4.370	62.12	95.1149	3.0313	-2.048
4.378	62.21	95.1048	3.0309	-2.003
4.387	62.29	95.0948	3.0306	-1.957
4.395	62.38	95.0848	3.0303	-1.911
4.403	62.46	95.0748	3.0300	-1.865
4.412	62.55	95.0648	3.0297	-1.820
4.420	62.63	95.0548	3.0293	-1.776
4.428	62.72	95.0449	3.0290	-1.731
4.437	62.80	95.0350	3.0287	-1.687
4.445	62.89	95.0251	3.0284	-1.643
4.453	62.97	95.0151	3.0281	-1.601
4.462	63.06	95.0053	3.0278	-1.558
4.470	63.14	94.9954	3.0274	-1.515
4.478	63.23	94.9855	3.0271	-1.473
4.487	63.31	94.9757	3.0268	-1.430
4.495	63.40	94.9658	3.0265	-1.388
4.503	63.48	94.9560	3.0262	-1.346
4.512	63.57	94.9462	3.0259	-1.302
4.520	63.65	94.9364	3.0256	-1.259
4.528	63.74	94.9267	3.0253	-1.217
4.537	63.82	94.9170	3.0249	-1.173
4.545	63.91	94.9073	3.0246	-1.129
4.553	63.99	94.8976	3.0243	-1.086
4.562	64.08	94.8879	3.0240	-1.042
4.570	64.16	94.8783	3.0237	-1.000
4.578	64.25	94.8687	3.0234	-0.958
4.587	64.33	94.8591	3.0231	-0.916
4.595	64.42	94.8496	3.0228	-0.876
4.603	64.50	94.8401	3.0225	-0.835
4.612	64.59	94.8306	3.0222	-0.794
4.620	64.67	94.8211	3.0219	-0.753
4.628	64.76	94.8117	3.0216	-0.713
4.637	64.84	94.8023	3.0213	-0.673
4.645	64.93	94.7929	3.0210	-0.632
4.653	65.01	94.7835	3.0207	-0.591
4.662	65.10	94.7742	3.0204	-0.549
4.670	65.18	94.7649	3.0201	-0.508
4.678	65.27	94.7556	3.0198	-0.467
4.687	65.35	94.7463	3.0195	-0.425
4.695	65.44	94.7370	3.0192	-0.384
4.703	65.52	94.7278	3.0189	-0.344
4.712	65.61	94.7186	3.0186	-0.302
4.720	65.69	94.7094	3.0183	-0.262
4.728	65.78	94.7002	3.0180	-0.222
4.737	65.86	94.6910	3.0177	-0.181
4.745	65.95	94.6819	3.0175	-0.141
4.753	66.03	94.6728	3.0172	-0.101
4.762	66.12	94.6637	3.0169	-0.061
4.770	66.20	94.6547	3.0166	-0.021
4.778	66.29	94.6457	3.0163	0.019
4.787	66.37	94.6367	3.0160	0.059
4.795	66.46	94.6277	3.0157	0.098
4.803	66.54	94.6187	3.0154	0.137
4.812	66.63	94.6098	3.0152	0.176
4.820	66.72	94.6009	3.0149	0.215
4.828	66.80	94.5920	3.0146	0.254
4.837	66.89	94.5831	3.0143	0.293
4.845	66.97	94.5742	3.0140	0.332
4.853	67.06	94.5653	3.0137	0.370
4.862	67.14	94.5565	3.0135	0.409
4.870	67.23	94.5477	3.0132	0.448
4.878	67.31	94.5389	3.0129	0.487
4.887	67.40	94.5302	3.0126	0.526
4.895	67.48	94.5214	3.0123	0.565
4.903	67.57	94.5127	3.0121	0.602
4.912	67.65	94.5040	3.0118	0.639
4.920	67.74	94.4953	3.0115	0.677
4.928	67.82	94.4867	3.0112	0.714
4.937	67.91	94.4781	3.0110	0.752
4.945	67.99	94.4695	3.0107	0.789
4.953	68.08	94.4609	3.0104	0.826
4.962	68.16	94.4523	3.0101	0.863
4.970	68.25	94.4438	3.0099	0.900
4.978	68.33	94.4353	3.0096	0.937
4.987	68.42	94.4268	3.0093	0.975
4.995	68.51	94.4183	3.0091	1.013
5.003	68.59	94.4099	3.0088	1.052
5.012	68.68	94.4015	3.0085	1.091
5.020	68.76	94.3931	3.0082	1.128
5.028	68.85	94.3847	3.0080	1.166
5.037	68.93	94.3763	3.0077	1.204
5.045	69.02	94.3680	3.0074	1.240
5.053	69.11	94.3597	3.0072	1.277
5.062	69.19	94.3514	3.0069	1.314
5.070	69.28	94.3431	3.0067	1.349
5.078	69.36	94.3348	3.0064	1.384
5.087	69.45	94.3266	3.0061	1.417
5.095	69.53	94.3184	3.0059	1.451
5.103	69.62	94.3102	3.0056	1.486
5.112	69.70	94.3019	3.0053	1.521
5.120	69.79	94.2938	3.0051	1.556
5.128	69.88	94.2856	3.0048	1.592
5.137	69.96	94.2775	3.0046	1.626
5.145	70.05	94.2694	3.0043	1.662
5.153	70.13	94.2613	3.0040	1.697
5.162	70.22	94.2533	3.0038	1.733
5.170	70.30	94.2452	3.0035	1.770
5.178	70.39	94.2373	3.0033	1.805
5.187	70.47	94.2293	3.0030	1.841
5.195	70.56	94.2213	3.0028	1.877
5.203	70.65	94.2134	3.0025	1.912
5.212	70.73	94.2055	3.0023	1.947
5.220	70.82	94.1976	3.0020	1.982
5.228	70.90	94.1897	3.0018	2.017
5.237	70.99	94.1819	3.0015	2.052
5.245	71.07	94.1740	3.0013	2.086
5.253	71.16	94.1662	3.0010	2.120
5.262	71.24	94.1584	3.0008	2.154
5.270	71.33	94.1506	3.0005	2.187
5.278	71.42	94.1428	3.0003	2.220
5.287	71.50	94.1350	3.0000	2.253
5.295	71.59	94.1273	2.9998	2.286
5.303	71.67	94.1195	2.9995	2.319
5.312	71.76	94.1118	2.9993	2.352
5.320	71.85	94.1041	2.9990	2.385
5.328	71.93	94.0964	2.9988	2.418
5.337	72.02	94.0888	2.9986	2.452
5.345	72.10	94.0812	2.9983	2.485
5.353	72.19	94.0736	2.9981	2.518
5.362	72.27	94.0660	2.9978	2.552
5.370	72.36	94.0585	2.9976	2.584
5.378	72.45	94.0510	2.9973	2.618
5.387	72.53	94.0435	2.9971	2.651
5.395	72.62	94.0361	2.9969	2.683
5.403	72.70	94.0286	2.9966	2.714
5.412	72.79	94.0212	2.9964	2.747
5.420	72.88	94.0138	2.9962	2.779
5.428	72.96	94.0065	2.9959	2.811
5.437	73.05	93.9991	2.9957	2.842
5.445	73.13	93.9918	2.9955	2.874
5.453	73.22	93.9845	2.9952	2.905
5.462	73.31	93.9772	2.9950	2.937
5.470	73.39	93.9699	2.9948	2.969
5.478	73.48	93.9627	2.9945	3.002
5.487	73.56	93.9555	2.9943	3.036
5.495	73.65	93.9483	2.9941	3.068
5.503	73.74	93.9411	2.9938	3.099
5.512	73.82	93.9340	2.9936	3.131
5.520	73.91	93.9268	2.9934	3.162
5.528	73.99	93.9197	2.9932	3.194
5.537	74.08	93.9126	2.9929	3.225
5.545	74.17	93.9055	2.9927	3.256
5.553	74.25	93.8985	2.9925	3.286
5.562	74.34	93.8914	2.9923	3.317
5.570	74.42	93.8844	2.9920	3.347
5.578	74.51	93.8774	2.9918	3.378
5.587	74.60	93.8704	2.9916	3.409
5.595	74.68	93.8635	2.9914	3.439
5.603	74.77	93.8566	2.9912	3.469
5.612	74.86	93.8497	2.9909	3.499
5.620	74.94	93.8428	2.9907	3.531
5.628	75.03	93.8360	2.9905	3.562
5.637	75.11	93.8292	2.9903	3.594
5.645	75.20	93.8223	2.9901	3.625
5.653	75.29	93.8156	2.9898	3.655
5.662	75.37	93.8088	2.9896	3.685
5.670	75.46	93.8021	2.9894	3.715
5.678	75.55	93.7954	2.9892	3.745
5.687	75.63	93.7887	2.9890	3.775
5.695	75.72	93.7821	2.9888	3.805
5.703	75.80	93.7754	2.9886	3.835
5.712	75.89	93.7688	2.9884	3.863
5.720	75.98	93.7622	2.9881	3.891
5.728	76.06	93.7555	2.9879	3.919
5.737	76.15	93.7490	2.9877	3.947
5.745	76.23	93.7424	2.9875	3.975
5.753	76.32	93.7358	2.9873	4.005
5.762	76.41	93.7293	2.9871	4.035
5.770	76.49	93.7228	2.9869	4.063
5.778	76.58	93.7163	2.9867	4.091
5.787	76.66	93.7098	2.9865	4.119
5.795	76.75	93.7033	2.9863	4.147
5.803	76.84	93.6969	2.9861	4.177
5.812	76.92	93.6905	2.9859	4.206
5.820	77.01	93.6841	2.9857	4.234
5.828	77.10	93.6777	2.9855	4.263
5.837	77.18	93.6714	2.9852	4.288
5.845	77.27	93.6650	2.9850	4.316
5.853	77.36	93.6587	2.9848	4.343
5.862	77.44	93.6524	2.9846	4.370
5.870	77.53	93.6461	2.9844	4.396
5.878	77.62	93.6398	2.9842	4.423
5.887	77.70	93.6335	2.9840	4.450
5.895	77.79	93.6273	2.9838	4.478
5.903	77.87	93.6211	2.9836	4.505
5.912	77.96	93.6149	2.9834	4.532
5.920	78.05	93.6087	2.9833	4.560
5.928	78.13	93.6026	2.9831	4.588
5.937	78.22	93.5964	2.9829	4.616
5.945	78.31	93.5903	2.9827	4.643
5.953	78.39	93.5843	2.9825	4.672
5.962	78.48	93.5782	2.9823	4.699
5.970	78.57	93.5722	2.9821	4.725
5.978	78.65	93.5662	2.9819	4.752
5.987	78.74	93.5602	2.9817	4.778
5.995	78.83	93.5542	2.9815	4.804
6.003	78.91	93.5483	2.9813	4.830
6.012	79.00	93.5424	2.9811	4.855
6.020	79.08	93.5365	2.9810	4.881
6.028	79.17	93.5306	2.9808	4.907
6.037	79.26	93.5247	2.9806	4.931
6.045	79.34	93.5189	2.9804	4.956
6.053	79.43	93.5131	2.9802	4.981
6.062	79.52	93.5072	2.9800	5.006
6.070	79.60	93.5014	2.9798	5.032
6.078	79.69	93.4956	2.9796	5.059
6.087	79.78	93.4898	2.9795	5.085
6.095	79.86	93.4841	2.9793	5.111
6.103	79.95	93.4783	2.9791	5.136
6.112	80.04	93.4726	2.9789	5.161
6.120	80.12	93.4669	2.9787	5.188
6.128	80.21	93.4613	2.9786	5.214
6.137	80.30	93.4556	2.9784	5.239
6.145	80.38	93.4500	2.9782	5.264
6.153	80.47	93.4444	2.9780	5.289
6.162	80.56	93.4388	2.9778	5.315
6.170	80.64	93.4332	2.9777	5.339
6.178	80.73	93.4276	2.9775	5.364
6.187	80.82	93.4221	2.9773	5.389
6.195	80.90	93.4165	2.9771	5.414
6.203	80.99	93.4110	2.9770	5.438
6.212	81.08	93.4055	2.9768	5.462
6.220	81.16	93.4000	2.9766	5.486
6.228	81.25	93.3945	2.9764	5.510
6.237	81.34	93.3890	2.9763	5.534
6.245	81.42	93.3836	2.9761	5.556
6.253	81.51	93.3782	2.9759	5.578
6.262	81.59	93.3728	2.9757	5.600
6.270	81.68	93.3674	2.9756	5.622
6.278	81.77	93.3621	2.9754	5.646
6.287	81.85	93.3567	2.9752	5.670
6.295	81.94	93.3513	2.9750	5.693
6.303	82.03	93.3460	2.9749	5.716
6.312	82.11	93.3407	2.9747	5.739
6.320	82.20	93.3354	2.9745	5.762
6.328	82.29	93.3301	2.9744	5.786
6.337	82.37	93.3248	2.9742	5.811
6.345	82.46	93.3195	2.9740	5.834
6.353	82.55	93.3143	2.9739	5.858
6.362	82.63	93.3092	2.9737	5.881
6.370	82.72	93.3040	2.9735	5.904
6.378	82.81	93.2989	2.9734	5.926
6.387	82.89	93.2938	2.9732	5.949
6.395	82.98	93.2887	2.9731	5.972
6.403	83.07	93.2837	2.9729	5.995
6.412	83.15	93.2787	2.9727	6.017
6.420	83.24	93.2737	2.9726	6.039
6.428	83.33	93.2687	2.9724	6.062
6.437	83.41	93.2637	2.9723	6.085
6.445	83.50	93.2588	2.9721	6.106
6.453	83.59	93.2538	2.9719	6.128
6.462	83.67	93.2489	2.9718	6.150
6.470	83.76	93.2440	2.9716	6.172
6.478	83.85	93.2391	2.9715	6.193
6.487	83.93	93.2342	2.9713	6.215
6.495	84.02	93.2293	2.9712	6.235
6.503	84.10	93.2244	2.9710	6.256
6.512	84.19	93.2196	2.9708	6.277
6.520	84.28	93.2147	2.9707	6.298
6.528	84.36	93.2099	2.9705	6.320
6.537	84.45	93.2051	2.9704	6.341
6.545	84.54	93.2003	2.9702	6.363
6.553	84.62	93.1955	2.9701	6.383
6.562	84.71	93.1908	2.9699	6.404
6.570	84.80	93.1860	2.9698	6.425
6.578	84.88	93.1813	2.9696	6.447
6.587	84.97	93.1766	2.9695	6.468
6.595	85.06	93.1719	2.9693	6.489
6.603	85.14	93.1672	2.9692	6.509
6.612	85.23	93.1626	2.9690	6.530
6.620	85.32	93.1580	2.9689	6.551
6.628	85.40	93.1534	2.9687	6.572
6.637	85.49	93.1489	2.9686	6.592
6.645	85.58	93.1443	2.9685	6.612
6.653	85.66	93.1398	2.9683	6.632
6.662	85.75	93.1353	2.9682	6.650
6.670	85.84	93.1308	2.9680	6.670
6.678	85.92	93.1264	2.9679	6.689
6.687	86.01	93.1219	2.9677	6.709
6.695	86.10	93.1174	2.9676	6.727
6.703	86.18	93.1130	2.9675	6.746
6.712	86.27	93.1085	2.9673	6.766
6.720	86.36	93.1041	2.9672	6.785
6.728	86.44	93.0997	2.9670	6.806
6.737	86.53	93.0953	2.9669	6.826
6.745	86.62	93.0910	2.9668	6.846
6.753	86.70	93.0866	2.9666	6.866
6.762	86.79	93.0823	2.9665	6.886
6.770	86.88	93.0780	2.9663	6.905
6.778	86.96	93.0737	2.9662	6.925
6.787	87.05	93.0694	2.9661	6.944
6.795	87.14	93.0652	2.9659	6.962
6.803	87.22	93.0609	2.9658	6.979
6.812	87.31	93.0567	2.9657	6.998
6.820	87.40	93.0525	2.9655	7.016
6.828	87.48	93.0483	2.9654	7.034
6.837	87.57	93.0441	2.9653	7.052
6.845	87.65	93.0399	2.9651	7.069
6.853	87.74	93.0358	2.9650	7.087
6.862	87.83	93.0316	2.9649	7.105
6.870	87.91	93.0275	2.9647	7.124
6.878	88.00	93.0234	2.9646	7.143
6.887	88.09	93.0193	2.9645	7.162
6.895	88.17	93.0152	2.9643	7.180
6.903	88.26	93.0111	2.9642	7.198
6.912	88.35	93.0071	2.9641	7.217
6.920	88.43	93.0030	2.9639	7.235
6.928	88.52	92.9990	2.9638	7.255
6.937	88.60	92.9950	2.9637	7.273
6.945	88.69	92.9910	2.9636	7.290
6.953	88.78	92.9870	2.9634	7.307
6.962	88.87	92.9831	2.9633	7.326
6.970	88.95	92.9791	2.9632	7.344
6.978	89.04	92.9752	2.9631	7.361
6.987	89.12	92.9713	2.9629	7.378
6.995	89.21	92.9674	2.9628	7.395
7.003	89.30	92.9635	2.9627	7.412
7.012	89.38	92.9596	2.9626	7.429
7.020	89.47	92.9558	2.9624	7.446
7.028	89.56	92.9519	2.9623	7.462
7.037	89.64	92.9481	2.9622	7.477
7.045	89.73	92.9442	2.9621	7.492
7.053	89.82	92.9404	2.9620	7.508
7.062	89.90	92.9366	2.9618	7.524
7.070	89.99	92.9329	2.9617	7.540
7.078	90.07	92.9291	2.9616	7.556
7.087	90.16	92.9253	2.9615	7.571
7.095	90.25	92.9216	2.9614	7.586
7.103	90.33	92.9179	2.9612	7.600
7.112	90.42	92.9142	2.9611	7.615
7.120	90.51	92.9105	2.9610	7.629
7.128	90.59	92.9069	2.9609	7.644
7.137	90.68	92.9032	2.9608	7.659
7.145	90.77	92.8996	2.9607	7.673
7.153	90.85	92.8959	2.9605	7.688
7.162	90.94	92.8923	2.9604	7.704
7.170	91.03	92.8887	2.9603	7.720
7.178	91.11	92.8851	2.9602	7.734
7.187	91.20	92.8816	2.9601	7.750
7.195	91.28	92.8780	2.9600	7.766
7.203	91.37	92.8745	2.9599	7.782
7.212	91.46	92.8710	2.9597	7.798
7.220	91.54	92.8675	2.9596	7.814
7.228	91.63	92.8640	2.9595	7.830
7.237	91.72	92.8605	2.9594	7.844
7.245	91.80	92.8570	2.9593	7.859
7.253	91.89	92.8536	2.9592	7.875
7.262	91.97	92.8501	2.9591	7.891
7.270	92.06	92.8467	2.9590	7.906
7.278	92.15	92.8433	2.9589	7.921
7.287	92.23	92.8398	2.9587	7.936
7.295	92.32	92.8365	2.9586	7.951
7.303	92.41	92.8331	2.9585	7.965
7.312	92.49	92.8297	2.9584	7.979
7.320	92.58	92.8264	2.9583	7.993
7.328	92.66	92.8231	2.9582	8.007
7.337	92.75	92.8198	2.9581	8.020
7.345	92.84	92.8166	2.9580	8.033
7.353	92.92	92.8133	2.9579	8.045
7.362	93.01	92.8100	2.9578	8.057
7.370	93.10	92.8068	2.9577	8.069
7.378	93.18	92.8036	2.9576	8.081
7.387	93.27	92.8003	2.9575	8.094
7.395	93.35	92.7971	2.9574	8.107
7.403	93.44	92.7940	2.9573	8.120
7.412	93.53	92.7908	2.9572	8.133
7.420	93.61	92.7876	2.9571	8.147
7.428	93.70	92.7844	2.9570	8.160
7.437	93.79	92.7812	2.9569	8.174
7.445	93.87	92.7781	2.9568	8.188
7.453	93.96	92.7750	2.9567	8.202
7.462	94.04	92.7718	2.9566	8.215
7.470	94.13	92.7687	2.9565	8.228
7.478	94.22	92.7656	2.9564	8.240
7.487	94.30	92.7626	2.9563	8.253
7.495	94.39	92.7595	2.9562	8.265
7.503	94.47	92.7564	2.9561	8.276
7.512	94.56	92.7534	2.9560	8.288
7.520	94.65	92.7504	2.9559	8.300
7.528	94.73	92.7474	2.9558	8.311
7.537	94.82	92.7445	2.9557	8.323
7.545	94.90	92.7415	2.9556	8.335
7.553	94.99	92.7386	2.9555	8.346
7.562	95.08	92.7356	2.9554	8.358
7.570	95.16	92.7327	2.9553	8.369
7.578	95.25	92.7298	2.9552	8.381
7.587	95.34	92.7269	2.9551	8.392
7.595	95.42	92.7240	2.9551	8.404
7.603	95.51	92.7211	2.9550	8.415
7.612	95.59	92.7183	2.9549	8.427
7.620	95.68	92.7154	2.9548	8.439
7.628	95.77	92.7126	2.9547	8.450
7.637	95.85	92.7098	2.9546	8.462
7.645	95.94	92.7070	2.9545	8.474
7.653	96.03	92.7042	2.9544	8.485
7.662	96.11	92.7014	2.9543	8.497
7.670	96.20	92.6987	2.9542	8.508
7.678	96.28	92.6960	2.9542	8.519
7.687	96.37	92.6933	2.9541	8.530
7.695	96.46	92.6906	2.9540	8.541
7.703	96.54	92.6879	2.9539	8.552
7.712	96.63	92.6852	2.9538	8.562
7.720	96.71	92.6825	2.9537	8.572
7.728	96.80	92.6798	2.9536	8.581
7.737	96.89	92.6771	2.9536	8.591
7.745	96.97	92.6745	2.9535	8.602
7.753	97.06	92.6718	2.9534	8.612
7.762	97.14	92.6692	2.9533	8.622
7.770	97.23	92.6666	2.9532	8.632
7.778	97.32	92.6640	2.9531	8.643
7.787	97.40	92.6614	2.9531	8.654
7.795	97.49	92.6588	2.9530	8.666
7.803	97.57	92.6562	2.9529	8.677
7.812	97.66	92.6537	2.9528	8.688
7.820	97.75	92.6511	2.9527	8.699
7.828	97.83	92.6485	2.9527	8.708
7.837	97.92	92.6460	2.9526	8.718
7.845	98.00	92.6434	2.9525	8.728
7.853	98.09	92.6408	2.9524	8.738
7.862	98.18	92.6383	2.9523	8.746
7.870	98.26	92.6357	2.9522	8.754
7.878	98.35	92.6332	2.9522	8.763
7.887	98.43	92.6307	2.9521	8.771
7.895	98.52	92.6281	2.9520	8.780
7.903	98.61	92.6256	2.9519	8.788
7.912	98.69	92.6231	2.9518	8.797
7.920	98.78	92.6206	2.9518	8.806
7.928	98.86	92.6181	2.9517	8.813
7.937	98.95	92.6156	2.9516	8.821
7.945	99.04	92.6132	2.9515	8.828
7.953	99.12	92.6107	2.9514	8.836
7.962	99.21	92.6083	2.9514	8.844
7.970	99.29	92.6059	2.9513	8.853
7.978	99.38	92.6035	2.9512	8.861
7.987	99.47	92.6011	2.9511	8.869
7.995	99.55	92.5988	2.9511	8.877
8.003	99.64	92.5964	2.9510	8.885
8.012	99.72	92.5941	2.9509	8.894
8.020	99.81	92.5918	2.9508	8.902
8.028	99.89	92.5895	2.9508	8.910
8.037	99.98	92.5873	2.9507	8.918
8.045	100.07	92.5850	2.9506	8.925
8.053	100.15	92.5827	2.9506	8.933
8.062	100.24	92.5805	2.9505	8.940
8.070	100.32	92.5783	2.9504	8.948
8.078	100.41	92.5760	2.9503	8.956
8.087	100.49	92.5737	2.9503	8.963
8.095	100.58	92.5714	2.9502	8.971
8.103	100.67	92.5692	2.9501	8.979
8.112	100.75	92.5669	2.9500	8.987
8.120	100.84	92.5646	2.9500	8.995
8.128	100.92	92.5624	2.9499	9.004
8.137	101.01	92.5601	2.9498	9.012
8.145	101.10	92.5579	2.9498	9.019
8.153	101.18	92.5557	2.9497	9.026
8.162	101.27	92.5535	2.9496	9.033
8.170	101.35	92.5513	2.9496	9.040
8.178	101.44	92.5491	2.9495	9.048
8.187	101.53	92.5469	2.9494	9.055
8.195	101.61	92.5448	2.9493	9.062
8.203	101.70	92.5427	2.9493	9.068
8.212	101.78	92.5406	2.9492	9.074
8.220	101.87	92.5385	2.9491	9.080
8.228	101.95	92.5364	2.9491	9.087
8.237	102.04	92.5343	2.9490	9.094
8.245	102.13	92.5323	2.9489	9.101
8.253	102.21	92.5302	2.9489	9.107
8.262	102.30	92.5282	2.9488	9.113
8.270	102.38	92.5261	2.9487	9.118
8.278	102.47	92.5241	2.9487	9.124
8.287	102.56	92.5220	2.9486	9.130
8.295	102.64	92.5200	2.9486	9.137
8.303	102.73	92.5180	2.9485	9.144
8.312	102.81	92.5160	2.9484	9.151
8.320	102.90	92.5140	2.9484	9.158
8.328	102.98	92.5120	2.9483	9.164
8.337	103.07	92.5100	2.9482	9.170
8.345	103.16	92.5081	2.9482	9.177
8.353	103.24	92.5062	2.9481	9.184
8.362	103.33	92.5042	2.9481	9.191
8.370	103.41	92.5023	2.9480	9.198
8.378	103.50	92.5004	2.9479	9.204
8.387	103.59	92.4985	2.9479	9.210
8.395	103.67	92.4966	2.9478	9.216
8.403	103.76	92.4947	2.9477	9.222
8.412	103.84	92.4928	2.9477	9.228
8.420	103.93	92.4909	2.9476	9.233
8.428	104.01	92.4890	2.9476	9.239
8.437	104.10	92.4871	2.9475	9.244
8.445	104.19	92.4852	2.9474	9.250
8.453	104.27	92.4833	2.9474	9.255
8.462	104.36	92.4815	2.9473	9.260
8.470	104.44	92.4796	2.9473	9.264
8.478	104.53	92.4778	2.9472	9.268
8.487	104.61	92.4759	2.9472	9.272
8.495	104.70	92.4741	2.9471	9.277
8.503	104.79	92.4723	2.9470	9.281
8.512	104.87	92.4705	2.9470	9.285
8.520	104.96	92.4687	2.9469	9.289
8.528	105.04	92.4668	2.9469	9.292
8.537	105.13	92.4650	2.9468	9.296
8.545	105.22	92.4632	2.9467	9.301
8.553	105.30	92.4614	2.9467	9.305
8.562	105.39	92.4596	2.9466	9.309
8.570	105.47	92.4578	2.9466	9.313
8.578	105.56	92.4560	2.9465	9.317
8.587	105.64	92.4542	2.9465	9.320
8.595	105.73	92.4524	2.9464	9.324
8.603	105.81	92.4507	2.9463	9.328
8.612	105.90	92.4489	2.9463	9.333
8.620	105.99	92.4471	2.9462	9.338
8.628	106.07	92.4454	2.9462	9.342
8.637	106.16	92.4436	2.9461	9.346
8.645	106.24	92.4419	2.9461	9.351
8.653	106.33	92.4403	2.9460	9.355
8.662	106.42	92.4386	2.9460	9.359
8.670	106.50	92.4369	2.9459	9.364
8.678	106.59	92.4352	2.9459	9.368

[step]
Isothermal 30.0 min
Time	Temperature	Weight	Weight	Heat Flow
min	°C	%	mg	mW
8.687	106.67	92.4336	2.9458	9.373
8.712	106.93	92.4287	2.9456	9.383
8.737	107.19	92.4239	2.9455	9.394
8.762	107.44	92.4191	2.9453	9.406
8.787	107.70	92.4144	2.9452	9.419
8.812	107.95	92.4097	2.9450	9.436
8.837	108.20	92.4052	2.9449	9.454
8.862	108.45	92.4007	2.9448	9.476
8.887	108.69	92.3962	2.9446	9.504
8.912	108.94	92.3918	2.9445	9.536
8.937	109.17	92.3874	2.9443	9.577
8.962	109.41	92.3829	2.9442	9.620
8.987	109.64	92.3784	2.9440	9.667
9.012	109.86	92.3738	2.9439	9.716
9.037	110.08	92.3692	2.9438	9.767
9.062	110.29	92.3647	2.9436	9.823
9.087	110.50	92.3602	2.9435	9.885
9.112	110.70	92.3558	2.9433	9.948
9.137	110.89	92.3514	2.9432	10.015
9.162	111.08	92.3470	2.9430	10.084
9.187	111.27	92.3427	2.9429	10.159
9.212	111.44	92.3383	2.9428	10.235
9.237	111.62	92.3339	2.9426	10.313
9.262	111.78	92.3295	2.9425	10.391
9.287	111.94	92.3253	2.9423	10.473
9.312	112.09	92.3211	2.9422	10.554
9.337	112.23	92.3169	2.9421	10.636
9.362	112.37	92.3126	2.9419	10.722
9.387	112.50	92.3084	2.9418	10.810
9.412	112.62	92.3043	2.9417	10.900
9.437	112.74	92.3004	2.9416	10.993
9.462	112.85	92.2966	2.9414	11.085
9.487	112.95	92.2929	2.9413	11.181
9.512	113.05	92.2892	2.9412	11.279
9.537	113.14	92.2854	2.9411	11.377
9.562	113.22	92.2817	2.9410	11.473
9.587	113.29	92.2779	2.9408	11.567
9.612	113.35	92.2743	2.9407	11.661
9.637	113.41	92.2706	2.9406	11.754
9.662	113.47	92.2668	2.9405	11.845
9.687	113.52	92.2631	2.9404	11.936
9.712	113.56	92.2594	2.9402	12.024
9.737	113.59	92.2557	2.9401	12.110
9.762	113.62	92.2521	2.9400	12.194
9.787	113.65	92.2486	2.9399	12.274
9.812	113.67	92.2451	2.9398	12.351
9.837	113.69	92.2417	2.9397	12.425
9.862	113.70	92.2383	2.9396	12.498
9.887	113.70	92.2350	2.9395	12.567
9.912	113.71	92.2317	2.9394	12.634
9.937	113.70	92.2284	2.9393	12.699
9.962	113.69	92.2252	2.9392	12.762
9.987	113.68	92.2220	2.9391	12.820
10.012	113.67	92.2188	2.9390	12.877
10.037	113.65	92.2157	2.9389	12.929
10.062	113.63	92.2127	2.9388	12.981
10.087	113.60	92.2096	2.9387	13.023
10.112	113.58	92.2066	2.9386	13.063
10.137	113.55	92.2035	2.9385	13.100
10.162	113.52	92.2006	2.9384	13.133
10.187	113.48	92.1977	2.9383	13.164
10.212	113.45	92.1950	2.9382	13.187
10.237	113.42	92.1923	2.9381	13.208
10.262	113.38	92.1897	2.9380	13.227
10.287	113.34	92.1872	2.9379	13.243
10.312	113.31	92.1848	2.9379	13.257
10.337	113.27	92.1824	2.9378	13.266
10.362	113.23	92.1801	2.9377	13.274
10.387	113.19	92.1778	2.9377	13.281
10.412	113.15	92.1757	2.9376	13.287
10.437	113.11	92.1737	2.9375	13.291
10.462	113.07	92.1718	2.9375	13.294
10.487	113.03	92.1700	2.9374	13.295
10.512	112.99	92.1683	2.9373	13.295
10.537	112.95	92.1665	2.9373	13.294
10.562	112.92	92.1647	2.9372	13.293
10.587	112.88	92.1630	2.9372	13.289
10.612	112.84	92.1613	2.9371	13.283
10.637	112.80	92.1596	2.9371	13.277
10.662	112.76	92.1580	2.9370	13.268
10.687	112.72	92.1565	2.9370	13.258
10.712	112.69	92.1550	2.9369	13.244
10.737	112.65	92.1536	2.9369	13.230
10.762	112.62	92.1522	2.9368	13.217
10.787	112.58	92.1509	2.9368	13.202
10.812	112.55	92.1495	2.9367	13.185
10.837	112.52	92.1481	2.9367	13.165
10.862	112.49	92.1468	2.9367	13.145
10.887	112.45	92.1455	2.9366	13.126
10.912	112.43	92.1442	2.9366	13.104
10.937	112.40	92.1429	2.9365	13.084
10.962	112.37	92.1416	2.9365	13.063
10.987	112.35	92.1404	2.9365	13.041
11.012	112.32	92.1392	2.9364	13.021
11.037	112.30	92.1382	2.9364	12.999
11.062	112.27	92.1371	2.9364	12.976
11.087	112.25	92.1361	2.9363	12.956
11.112	112.23	92.1349	2.9363	12.937
11.137	112.21	92.1339	2.9362	12.919
11.162	112.20	92.1328	2.9362	12.901
11.187	112.18	92.1317	2.9362	12.880
11.212	112.17	92.1307	2.9361	12.856
11.237	112.15	92.1297	2.9361	12.828
11.262	112.14	92.1287	2.9361	12.803
11.287	112.13	92.1277	2.9361	12.781
11.312	112.12	92.1267	2.9360	12.765
11.337	112.11	92.1257	2.9360	12.747
11.362	112.10	92.1249	2.9360	12.729
11.387	112.10	92.1241	2.9359	12.710
11.412	112.09	92.1234	2.9359	12.693
11.437	112.09	92.1228	2.9359	12.675
11.462	112.08	92.1221	2.9359	12.659
11.487	112.08	92.1214	2.9359	12.642
11.512	112.08	92.1206	2.9358	12.624
[...]
158.170	950.00	2.0303	0.0647	111.027
158.178	950.00	2.0302	0.0647	111.037
158.187	950.00	2.0301	0.0647	111.047
158.195	950.00	2.0301	0.0647	111.056
158.203	950.00	2.0300	0.0647	111.065
158.212	950.00	2.0299	0.0647	111.074
158.220	950.00	2.0298	0.0647	111.084
158.228	950.00	2.0297	0.0647	111.093
158.237	950.00	2.0297	0.0647	111.103
158.245	950.00	2.0296	0.0647	111.113
158.253	950.00	2.0295	0.0647	111.123
158.262	950.00	2.0294	0.0647	111.132
158.270	950.00	2.0294	0.0647	111.141
158.278	950.00	2.0293	0.0647	111.150
158.287	950.00	2.0292	0.0647	111.158
158.295	950.01	2.0291	0.0647	111.167
158.303	950.01	2.0291	0.0647	111.175
158.312	950.01	2.0290	0.0647	111.183
158.320	950.01	2.0289	0.0647	111.191
158.328	950.01	2.0289	0.0647	111.198
158.337	950.01	2.0288	0.0647	111.204
158.345	950.01	2.0287	0.0647	111.210
158.353	950.01	2.0287	0.0647	111.216
158.362	950.01	2.0286	0.0646	111.222
158.370	950.01	2.0285	0.0646	111.227
158.378	950.01	2.0283	0.0646	111.233
158.387	950.01	2.0282	0.0646	111.239
158.395	950.01	2.0281	0.0646	111.244
158.403	950.01	2.0280	0.0646	111.249
158.412	950.01	2.0278	0.0646	111.254
158.420	950.01	2.0277	0.0646	111.259
158.428	950.01	2.0276	0.0646	111.265
158.437	950.01	2.0274	0.0646	111.270
158.445	950.01	2.0273	0.0646	111.277
158.453	950.01	2.0272	0.0646	111.283
158.462	950.02	2.0271	0.0646	111.290
158.470	950.02	2.0270	0.0646	111.297
158.478	950.02	2.0270	0.0646	111.303
158.487	950.02	2.0269	0.0646	111.310
158.495	950.02	2.0268	0.0646	111.317
158.503	950.02	2.0267	0.0646	111.324
158.512	950.02	2.0267	0.0646	111.330
158.520	950.02	2.0266	0.0646	111.336
158.528	950.02	2.0265	0.0646	111.343
158.537	950.02	2.0265	0.0646	111.350
158.545	950.02	2.0264	0.0646	111.357
158.553	950.02	2.0263	0.0646	111.365
158.562	950.02	2.0262	0.0646	111.372
158.570	950.02	2.0261	0.0646	111.379
158.578	950.02	2.0260	0.0646	111.386
158.587	950.02	2.0259	0.0646	111.394
158.595	950.02	2.0258	0.0646	111.401
158.603	950.02	2.0257	0.0646	111.409
158.612	950.02	2.0257	0.0646	111.415
158.620	950.02	2.0256	0.0646	111.421
158.628	950.02	2.0255	0.0646	111.427
158.637	950.02	2.0254	0.0645	111.432
158.645	950.02	2.0254	0.0645	111.438
158.653	950.03	2.0253	0.0645	111.444
158.662	950.03	2.0253	0.0645	111.449
158.670	950.03	2.0252	0.0645	111.454
158.678	950.03	2.0252	0.0645	111.460
158.687	950.03	2.0251	0.0645	111.466
158.695	950.03	2.0251	0.0645	111.473
158.703	950.03	2.0251	0.0645	111.479
158.712	950.03	2.0250	0.0645	111.486
158.720	950.03	2.0250	0.0645	111.493
158.728	950.03	2.0249	0.0645	111.501
158.737	950.03	2.0249	0.0645	111.508
158.745	950.03	2.0248	0.0645	111.516
158.753	950.03	2.0247	0.0645	111.523
158.762	950.03	2.0246	0.0645	111.531
158.770	950.03	2.0246	0.0645	111.537
158.778	950.03	2.0245	0.0645	111.544
158.787	950.03	2.0244	0.0645	111.551
158.795	950.03	2.0243	0.0645	111.558
158.803	950.03	2.0242	0.0645	111.564
158.812	950.03	2.0241	0.0645	111.570
158.820	950.03	2.0241	0.0645	111.577
158.828	950.03	2.0240	0.0645	111.583
158.837	950.03	2.0240	0.0645	111.590
158.845	950.03	2.0239	0.0645	111.596
158.853	950.04	2.0239	0.0645	111.603
158.862	950.04	2.0238	0.0645	111.610
158.870	950.04	2.0238	0.0645	111.616
158.878	950.04	2.0237	0.0645	111.622
158.887	950.04	2.0237	0.0645	111.628
158.895	950.04	2.0237	0.0645	111.635
158.903	950.04	2.0236	0.0645	111.642
158.912	950.04	2.0236	0.0645	111.649
158.920	950.04	2.0235	0.0645	111.656
158.928	950.04	2.0235	0.0645	111.663
158.937	950.04	2.0235	0.0645	111.670
158.945	950.04	2.0235	0.0645	111.676
158.953	950.04	2.0235	0.0645	111.683
158.962	950.04	2.0234	0.0645	111.690
158.970	950.04	2.0234	0.0645	111.696
158.978	950.04	2.0234	0.0645	111.702
158.987	950.04	2.0233	0.0645	111.709
158.995	950.04	2.0233	0.0645	111.715
159.003	950.04	2.0233	0.0645	111.721
159.012	950.04	2.0233	0.0645	111.727
159.020	950.04	2.0233	0.0645	111.734
159.028	950.04	2.0233	0.0645	111.741
159.037	950.04	2.0233	0.0645	111.747
159.045	950.04	2.0233	0.0645	111.754
159.053	950.04	2.0233	0.0645	111.760
159.062	950.04	2.0233	0.0645	111.766
159.070	950.04	2.0232	0.0645	111.772
159.078	950.04	2.0232	0.0645	111.777
159.087	950.04	2.0232	0.0645	111.782
159.095	950.04	2.0232	0.0645	111.787
159.103	950.04	2.0231	0.0645	111.792
159.112	950.04	2.0230	0.0645	111.798
159.120	950.04	2.0230	0.0645	111.804
159.128	950.04	2.0229	0.0645	111.811
159.137	950.04	2.0228	0.0645	111.819
159.145	950.05	2.0228	0.0645	111.827
159.153	950.05	2.0227	0.0645	111.835
159.162	950.05	2.0227	0.0645	111.843
159.170	950.05	2.0227	0.0645	111.852
159.178	950.05	2.0226	0.0645	111.861
159.187	950.05	2.0226	0.0645	111.869
159.195	950.05	2.0226	0.0645	111.877
159.203	950.05	2.0225	0.0645	111.884
159.212	950.05	2.0225	0.0645	111.890
159.220	950.05	2.0224	0.0645	111.895
159.228	950.05	2.0223	0.0645	111.900
159.237	950.05	2.0223	0.0644	111.907
159.245	950.05	2.0222	0.0644	111.912
159.253	950.05	2.0221	0.0644	111.918
159.262	950.05	2.0221	0.0644	111.924
159.270	950.05	2.0220	0.0644	111.929
159.278	950.05	2.0219	0.0644	111.935
159.287	950.05	2.0218	0.0644	111.940
159.295	950.05	2.0218	0.0644	111.945
159.303	950.05	2.0217	0.0644	111.951
159.312	950.05	2.0217	0.0644	111.956
159.320	950.05	2.0217	0.0644	111.960
159.328	950.05	2.0216	0.0644	111.964
159.337	950.05	2.0216	0.0644	111.968
159.345	950.05	2.0215	0.0644	111.972
159.353	950.05	2.0215	0.0644	111.976
159.362	950.05	2.0214	0.0644	111.980
159.370	950.05	2.0214	0.0644	111.984
159.378	950.05	2.0213	0.0644	111.988
159.387	950.05	2.0212	0.0644	111.993
159.395	950.06	2.0211	0.0644	111.998
159.403	950.06	2.0211	0.0644	112.003
159.412	950.06	2.0210	0.0644	112.008
159.420	950.06	2.0210	0.0644	112.013
159.428	950.06	2.0209	0.0644	112.018
159.437	950.06	2.0209	0.0644	112.024
159.445	950.06	2.0208	0.0644	112.029
159.453	950.06	2.0208	0.0644	112.035
159.462	950.06	2.0207	0.0644	112.040
159.470	950.06	2.0207	0.0644	112.045
159.478	950.06	2.0206	0.0644	112.050
159.487	950.06	2.0205	0.0644	112.055
159.495	950.06	2.0205	0.0644	112.060
159.503	950.06	2.0204	0.0644	112.066
159.512	950.06	2.0203	0.0644	112.070
159.520	950.06	2.0202	0.0644	112.075
159.528	950.06	2.0201	0.0644	112.079
159.537	950.06	2.0200	0.0644	112.083
159.545	950.06	2.0200	0.0644	112.087
159.553	950.06	2.0199	0.0644	112.091
159.562	950.06	2.0198	0.0644	112.095
159.570	950.06	2.0198	0.0644	112.098
159.578	950.06	2.0197	0.0644	112.102
159.587	950.06	2.0197	0.0644	112.105
159.595	950.06	2.0197	0.0644	112.108
159.603	950.06	2.0196	0.0644	112.112
159.612	950.06	2.0196	0.0644	112.115
159.620	950.06	2.0195	0.0644	112.119
159.628	950.06	2.0195	0.0644	112.122
159.637	950.06	2.0194	0.0644	112.125
159.645	950.06	2.0194	0.0644	112.128
159.653	950.06	2.0193	0.0644	112.131
159.662	950.06	2.0193	0.0644	112.134
159.670	950.06	2.0192	0.0644	112.137
159.678	950.06	2.0192	0.0643	112.140
159.687	950.06	2.0191	0.0643	112.143
159.695	950.06	2.0191	0.0643	112.146
159.703	950.06	2.0190	0.0643	112.149
159.712	950.07	2.0190	0.0643	112.152
159.720	950.07	2.0190	0.0643	112.155
159.728	950.07	2.0189	0.0643	112.159
159.737	950.07	2.0189	0.0643	112.163
159.745	950.07	2.0188	0.0643	112.166
159.753	950.07	2.0188	0.0643	112.170
159.762	950.07	2.0187	0.0643	112.175
159.770	950.07	2.0187	0.0643	112.179
159.778	950.07	2.0186	0.0643	112.184
159.787	950.07	2.0185	0.0643	112.189
159.795	950.07	2.0185	0.0643	112.194
159.803	950.07	2.0184	0.0643	112.199
159.812	950.07	2.0183	0.0643	112.203
159.820	950.07	2.0182	0.0643	112.209
159.828	950.07	2.0181	0.0643	112.214
159.837	950.07	2.0180	0.0643	112.219
159.845	950.07	2.0179	0.0643	112.224
159.853	950.07	2.0178	0.0643	112.228
159.862	950.07	2.0177	0.0643	112.232
159.870	950.07	2.0176	0.0643	112.237
159.878	950.07	2.0175	0.0643	112.241
159.887	950.07	2.0174	0.0643	112.246
159.895	950.07	2.0173	0.0643	112.251
159.903	950.07	2.0171	0.0643	112.255
159.912	950.07	2.0171	0.0643	112.259
159.920	950.07	2.0170	0.0643	112.263
159.928	950.07	2.0169	0.0643	112.267
159.937	950.07	2.0169	0.0643	112.271
159.945	950.07	2.0168	0.0643	112.275
159.953	950.07	2.0167	0.0643	112.279
159.962	950.07	2.0167	0.0643	112.282
159.970	950.07	2.0166	0.0643	112.285
159.978	950.07	2.0166	0.0643	112.288
159.987	950.07	2.0165	0.0643	112.291
159.995	950.07	2.0165	0.0643	112.294
160.003	950.07	2.0164	0.0643	112.298
160.012	950.07	2.0164	0.0643	112.301
160.020	950.07	2.0163	0.0643	112.305
160.028	950.07	2.0163	0.0643	112.308
160.037	950.07	2.0162	0.0643	112.312
160.045	950.07	2.0162	0.0643	112.315
160.053	950.07	2.0162	0.0643	112.319
160.062	950.07	2.0162	0.0643	112.324
160.070	950.07	2.0161	0.0643	112.329
160.078	950.07	2.0161	0.0643	112.334
160.087	950.08	2.0161	0.0643	112.339
160.095	950.08	2.0160	0.0642	112.344
160.103	950.08	2.0160	0.0642	112.349
160.112	950.08	2.0159	0.0642	112.354
160.120	950.08	2.0159	0.0642	112.359
160.128	950.08	2.0158	0.0642	112.363
160.137	950.08	2.0157	0.0642	112.368
160.145	950.08	2.0157	0.0642	112.372
160.153	950.08	2.0156	0.0642	112.375
160.162	950.08	2.0155	0.0642	112.378
160.170	950.08	2.0154	0.0642	112.381
160.178	950.08	2.0153	0.0642	112.384
160.187	950.08	2.0152	0.0642	112.387
160.195	950.08	2.0151	0.0642	112.391
160.203	950.08	2.0150	0.0642	112.395
160.212	950.08	2.0149	0.0642	112.398
160.220	950.08	2.0148	0.0642	112.402
160.228	950.08	2.0147	0.0642	112.405
160.237	950.08	2.0147	0.0642	112.408
160.245	950.08	2.0146	0.0642	112.411
160.253	950.08	2.0146	0.0642	112.414
160.262	950.08	2.0146	0.0642	112.416
160.270	950.08	2.0146	0.0642	112.419
160.278	950.08	2.0146	0.0642	112.422
160.287	950.08	2.0145	0.0642	112.426
160.295	950.08	2.0145	0.0642	112.429
160.303	950.08	2.0145	0.0642	112.432
160.312	950.08	2.0145	0.0642	112.436
160.320	950.08	2.0144	0.0642	112.439
160.328	950.08	2.0143	0.0642	112.443
160.337	950.08	2.0142	0.0642	112.447
160.345	950.08	2.0142	0.0642	112.450
160.353	950.08	2.0141	0.0642	112.453
160.362	950.08	2.0140	0.0642	112.456
160.370	950.08	2.0139	0.0642	112.458
160.378	950.08	2.0138	0.0642	112.461
160.387	950.08	2.0137	0.0642	112.464
160.395	950.08	2.0136	0.0642	112.467
160.403	950.08	2.0135	0.0642	112.470
160.412	950.08	2.0135	0.0642	112.473
160.420	950.08	2.0134	0.0642	112.476
160.428	950.08	2.0134	0.0642	112.480
160.437	950.08	2.0134	0.0642	112.483
160.445	950.08	2.0134	0.0642	112.486
160.453	950.09	2.0133	0.0642	112.489
160.462	950.09	2.0133	0.0642	112.491
160.470	950.09	2.0133	0.0642	112.494
160.478	950.09	2.0133	0.0642	112.497
160.487	950.09	2.0133	0.0642	112.499
160.495	950.09	2.0133	0.0642	112.502
160.503	950.09	2.0132	0.0642	112.504
160.512	950.09	2.0132	0.0642	112.507
160.520	950.09	2.0132	0.0642	112.510
160.528	950.09	2.0131	0.0642	112.513
160.537	950.09	2.0131	0.0642	112.515
160.545	950.09	2.0130	0.0642	112.518
160.553	950.09	2.0130	0.0642	112.521
160.562	950.09	2.0129	0.0642	112.524
160.570	950.09	2.0128	0.0641	112.527
160.578	950.09	2.0128	0.0641	112.530
160.587	950.09	2.0127	0.0641	112.533
160.595	950.09	2.0126	0.0641	112.537
160.603	950.09	2.0126	0.0641	112.540
160.612	950.09	2.0125	0.0641	112.543
160.620	950.09	2.0124	0.0641	112.547
160.628	950.09	2.0123	0.0641	112.550
160.637	950.09	2.0122	0.0641	112.554
160.645	950.09	2.0121	0.0641	112.557
160.653	950.09	2.0120	0.0641	112.560
160.662	950.09	2.0119	0.0641	112.564
160.670	950.09	2.0117	0.0641	112.568
160.678	950.09	2.0116	0.0641	112.571
160.687	950.09	2.0115	0.0641	112.575
160.695	950.09	2.0114	0.0641	112.578
160.703	950.09	2.0113	0.0641	112.581
160.712	950.09	2.0113	0.0641	112.585
160.720	950.09	2.0112	0.0641	112.588
160.728	950.09	2.0111	0.0641	112.591
160.737	950.09	2.0110	0.0641	112.594
160.745	950.09	2.0110	0.0641	112.596
160.753	950.09	2.0109	0.0641	112.598
160.762	950.09	2.0108	0.0641	112.600
160.770	950.09	2.0108	0.0641	112.602
160.778	950.09	2.0107	0.0641	112.604
160.787	950.09	2.0106	0.0641	112.605
160.795	950.09	2.0106	0.0641	112.607
160.803	950.09	2.0105	0.0641	112.608
160.812	950.09	2.0105	0.0641	112.610
160.820	950.09	2.0104	0.0641	112.611
160.828	950.09	2.0103	0.0641	112.613
160.837	950.09	2.0103	0.0641	112.615
160.845	950.09	2.0102	0.0641	112.617
160.853	950.09	2.0102	0.0641	112.620
160.862	950.09	2.0101	0.0641	112.622
160.870	950.09	2.0100	0.0641	112.624
160.878	950.10	2.0100	0.0641	112.627
160.887	950.10	2.0099	0.0641	112.629
160.895	950.10	2.0098	0.0641	112.632
160.903	950.10	2.0097	0.0640	112.636
160.912	950.10	2.0096	0.0640	112.639
160.920	950.10	2.0095	0.0640	112.643
160.928	950.10	2.0094	0.0640	112.646
160.937	950.10	2.0093	0.0640	112.649
160.945	950.10	2.0093	0.0640	112.653
160.953	950.10	2.0092	0.0640	112.656
160.962	950.10	2.0091	0.0640	112.660
160.970	950.10	2.0090	0.0640	112.664
160.978	950.10	2.0089	0.0640	112.668
160.987	950.10	2.0088	0.0640	112.672
160.995	950.10	2.0087	0.0640	112.675
161.003	950.10	2.0086	0.0640	112.678
161.012	950.10	2.0085	0.0640	112.682
161.020	950.10	2.0084	0.0640	112.686
161.028	950.10	2.0084	0.0640	112.690
161.037	950.10	2.0083	0.0640	112.693
161.045	950.10	2.0082	0.0640	112.697
161.053	950.10	2.0082	0.0640	112.700
161.062	950.10	2.0082	0.0640	112.703
161.070	950.10	2.0081	0.0640	112.706
161.078	950.10	2.0081	0.0640	112.709
161.087	950.10	2.0080	0.0640	112.712
161.095	950.10	2.0080	0.0640	112.714
161.103	950.10	2.0079	0.0640	112.717
161.112	950.10	2.0078	0.0640	112.719
161.120	950.10	2.0078	0.0640	112.722
161.128	950.10	2.0077	0.0640	112.724
161.137	950.10	2.0076	0.0640	112.727
161.145	950.10	2.0076	0.0640	112.730
161.153	950.10	2.0075	0.0640	112.733
161.162	950.10	2.0074	0.0640	112.736
161.170	950.10	2.0073	0.0640	112.740
161.178	950.10	2.0073	0.0640	112.743
161.187	950.10	2.0072	0.0640	112.747
161.195	950.10	2.0071	0.0640	112.751
161.203	950.10	2.0071	0.0640	112.755
161.212	950.10	2.0070	0.0640	112.760
161.220	950.10	2.0070	0.0640	112.764
161.228	950.10	2.0070	0.0640	112.768
161.237	950.10	2.0069	0.0640	112.772
161.245	950.10	2.0069	0.0640	112.775
161.253	950.10	2.0068	0.0640	112.779
161.262	950.10	2.0068	0.0640	112.783
161.270	950.10	2.0067	0.0640	112.786
161.278	950.10	2.0067	0.0640	112.789
161.287	950.10	2.0066	0.0639	112.792
161.295	950.10	2.0066	0.0639	112.795
161.303	950.10	2.0065	0.0639	112.797
161.312	950.10	2.0065	0.0639	112.800
161.320	950.10	2.0064	0.0639	112.802
161.328	950.10	2.0064	0.0639	112.804
161.337	950.10	2.0063	0.0639	112.806
161.345	950.10	2.0063	0.0639	112.809
161.353	950.10	2.0063	0.0639	112.810
161.362	950.10	2.0062	0.0639	112.812
161.370	950.10	2.0061	0.0639	112.814
161.378	950.10	2.0061	0.0639	112.816
161.387	950.10	2.0060	0.0639	112.818
161.395	950.10	2.0060	0.0639	112.820
161.403	950.10	2.0059	0.0639	112.822
161.412	950.10	2.0059	0.0639	112.825
161.420	950.10	2.0058	0.0639	112.827
161.428	950.10	2.0058	0.0639	112.829
161.437	950.10	2.0058	0.0639	112.832
161.445	950.10	2.0058	0.0639	112.835
161.453	950.10	2.0058	0.0639	112.837
161.462	950.10	2.0058	0.0639	112.839
161.470	950.10	2.0058	0.0639	112.841
161.478	950.10	2.0058	0.0639	112.843
161.487	950.10	2.0058	0.0639	112.846
161.495	950.10	2.0058	0.0639	112.848
161.503	950.10	2.0058	0.0639	112.851
161.512	950.10	2.0057	0.0639	112.853
161.520	950.10	2.0057	0.0639	112.855
161.528	950.10	2.0057	0.0639	112.857
161.537	950.11	2.0056	0.0639	112.860
161.545	950.11	2.0056	0.0639	112.862
161.553	950.11	2.0056	0.0639	112.865
161.562	950.11	2.0055	0.0639	112.867
161.570	950.11	2.0055	0.0639	112.869
161.578	950.11	2.0055	0.0639	112.871
161.587	950.11	2.0055	0.0639	112.873
161.595	950.11	2.0055	0.0639	112.876
161.603	950.11	2.0056	0.0639	112.878
161.612	950.11	2.0056	0.0639	112.880
161.620	950.11	2.0056	0.0639	112.883
161.628	950.11	2.0056	0.0639	112.885
161.637	950.11	2.0056	0.0639	112.887
161.645	950.11	2.0056	0.0639	112.890
161.653	950.11	2.0056	0.0639	112.892
161.662	950.11	2.0055	0.0639	112.894
161.670	950.11	2.0055	0.0639	112.895
161.678	950.11	2.0055	0.0639	112.896
161.687	950.11	2.0054	0.0639	112.898
161.695	950.11	2.0054	0.0639	112.899
161.703	950.11	2.0053	0.0639	112.900
161.712	950.11	2.0053	0.0639	112.902
161.720	950.11	2.0052	0.0639	112.904
161.728	950.11	2.0052	0.0639	112.906
161.737	950.11	2.0051	0.0639	112.908
161.745	950.11	2.0050	0.0639	112.910
161.753	950.11	2.0050	0.0639	112.912
161.762	950.11	2.0049	0.0639	112.915
161.770	950.11	2.0048	0.0639	112.917
161.778	950.11	2.0048	0.0639	112.919
161.787	950.11	2.0047	0.0639	112.921
161.795	950.11	2.0046	0.0639	112.923
161.803	950.11	2.0045	0.0639	112.926
161.812	950.11	2.0045	0.0639	112.927
161.820	950.11	2.0044	0.0639	112.929
161.828	950.11	2.0043	0.0639	112.931
161.837	950.11	2.0042	0.0639	112.932
161.845	950.11	2.0041	0.0639	112.933
161.853	950.11	2.0041	0.0639	112.935
161.862	950.11	2.0040	0.0639	112.936
161.870	950.11	2.0038	0.0639	112.938
161.878	950.11	2.0037	0.0639	112.939
161.887	950.11	2.0036	0.0639	112.941
161.895	950.11	2.0035	0.0638	112.942
161.903	950.11	2.0033	0.0638	112.944
161.912	950.11	2.0032	0.0638	112.945
161.920	950.11	2.0031	0.0638	112.947
161.928	950.11	2.0029	0.0638	112.948
161.937	950.11	2.0028	0.0638	112.950
161.945	950.11	2.0027	0.0638	112.951
161.953	950.11	2.0027	0.0638	112.953
161.962	950.11	2.0026	0.0638	112.954
161.970	950.11	2.0025	0.0638	112.955
161.978	950.11	2.0025	0.0638	112.956
161.987	950.11	2.0024	0.0638	112.958
161.995	950.11	2.0024	0.0638	112.959
162.003	950.11	2.0024	0.0638	112.961
162.012	950.11	2.0023	0.0638	112.963
162.020	950.11	2.0023	0.0638	112.964
162.028	950.11	2.0023	0.0638	112.966
162.037	950.11	2.0022	0.0638	112.967
162.045	950.11	2.0022	0.0638	112.969
162.053	950.11	2.0022	0.0638	112.971
162.062	950.11	2.0021	0.0638	112.973
162.070	950.11	2.0021	0.0638	112.975
162.078	950.11	2.0021	0.0638	112.977
162.087	950.11	2.0021	0.0638	112.979
162.095	950.11	2.0020	0.0638	112.981
162.103	950.11	2.0020	0.0638	112.983
162.112	950.11	2.0020	0.0638	112.985
162.120	950.11	2.0020	0.0638	112.987
162.128	950.11	2.0019	0.0638	112.989
162.137	950.11	2.0019	0.0638	112.991
162.145	950.11	2.0019	0.0638	112.993
162.153	950.12	2.0018	0.0638	112.994
162.162	950.12	2.0018	0.0638	112.995
162.170	950.12	2.0017	0.0638	112.997
162.178	950.12	2.0017	0.0638	112.998
162.187	950.12	2.0017	0.0638	112.999
162.195	950.12	2.0016	0.0638	113.000
162.203	950.12	2.0016	0.0638	113.001
162.212	950.12	2.0016	0.0638	113.003
162.220	950.12	2.0016	0.0638	113.004
162.228	950.12	2.0016	0.0638	113.006
162.237	950.12	2.0016	0.0638	113.007
162.245	950.12	2.0016	0.0638	113.009
162.253	950.12	2.0017	0.0638	113.010
162.262	950.12	2.0017	0.0638	113.012
162.270	950.12	2.0017	0.0638	113.014
162.278	950.12	2.0017	0.0638	113.015
162.287	950.12	2.0017	0.0638	113.017
162.295	950.12	2.0017	0.0638	113.019
162.303	950.12	2.0016	0.0638	113.020
162.312	950.12	2.0016	0.0638	113.022
162.320	950.12	2.0015	0.0638	113.024
162.328	950.12	2.0014	0.0638	113.025
162.337	950.12	2.0014	0.0638	113.027
162.345	950.12	2.0013	0.0638	113.028
162.353	950.12	2.0012	0.0638	113.030
162.362	950.12	2.0012	0.0638	113.031
162.370	950.12	2.0011	0.0638	113.033
162.378	950.12	2.0011	0.0638	113.034
162.387	950.12	2.0010	0.0638	113.035
162.395	950.12	2.0010	0.0638	113.037
162.403	950.12	2.0009	0.0638	113.038
162.412	950.12	2.0009	0.0638	113.040
162.420	950.12	2.0009	0.0638	113.041
162.428	950.12	2.0009	0.0638	113.043
162.437	950.12	2.0009	0.0638	113.045
162.445	950.12	2.0009	0.0638	113.046
162.453	950.12	2.0008	0.0638	113.048
162.462	950.12	2.0008	0.0638	113.050
162.470	950.12	2.0008	0.0638	113.052
162.478	950.12	2.0008	0.0638	113.054
162.487	950.12	2.0008	0.0638	113.056
162.495	950.12	2.0008	0.0638	113.058
162.503	950.12	2.0007	0.0638	113.060
162.512	950.12	2.0007	0.0638	113.063
162.520	950.12	2.0006	0.0638	113.066
162.528	950.12	2.0006	0.0638	113.069
162.537	950.12	2.0005	0.0638	113.071
162.545	950.12	2.0005	0.0638	113.074
162.553	950.12	2.0004	0.0638	113.076
162.562	950.12	2.0004	0.0638	113.079
162.570	950.12	2.0003	0.0637	113.081
162.578	950.12	2.0003	0.0637	113.084
162.587	950.12	2.0002	0.0637	113.086
162.595	950.12	2.0002	0.0637	113.089
162.603	950.12	2.0001	0.0637	113.091
162.612	950.12	2.0001	0.0637	113.093
162.620	950.12	2.0000	0.0637	113.095
162.628	950.12	1.9999	0.0637	113.097
162.637	950.12	1.9999	0.0637	113.100
162.645		1.9998	0.0637
162.653		1.9997	0.0637
162.662		1.9996	0.0637
162.670		1.9996	0.0637
162.678		1.9995	0.0637