File: PSO Kinetics/data/WF115_1.txt
Filename	WF115_1
Instrument name	0650-0369 (192.168.1.2)
Operator	ca527
rundate	11/24/2022
Sample name	WF115_1
proceduresegments	Select Gas: Gas 1 ; Ramp 10.00 °C/min to 110.00 °C; Isothermal 30.0 min; Ramp 10.00 °C/min to 900.00 °C; Isothermal 30.0 min; Select Gas: Gas 2 ; Ramp 10.00 °C/min to 950.00 °C; Isothermal 10.0 min; Data Off ; Equilibrate 30.00 °C
[step]
Ramp 10.00 °C/min to 110.00 °C
Time	Temperature	Weight	Weight	Heat Flow
min	°C	%	mg	mW
0.003		100.0083	4.3790
0.012		100.0186	4.3795
0.020		100.0206	4.3796
0.028		100.0123	4.3792
0.037		99.9982	4.3786
0.045	22.42	99.9809	4.3778	-25.396
0.053	22.44	99.9614	4.3770	-25.368
0.062	22.46	99.9395	4.3760	-25.346
0.070	22.48	99.9146	4.3749	-25.328
0.078	22.49	99.8851	4.3736	-25.313
0.087	22.51	99.8498	4.3721	-25.299
0.095	22.53	99.8150	4.3706	-25.286
0.103	22.55	99.7893	4.3694	-25.275
0.112	22.57	99.7742	4.3688	-25.266
0.120	22.59	99.7648	4.3684	-25.256
0.128	22.61	99.7582	4.3681	-25.248
0.137	22.62	99.7529	4.3678	-25.241
0.145	22.64	99.7484	4.3676	-25.233
0.153	22.66	99.7442	4.3675	-25.226
0.162	22.68	99.7401	4.3673	-25.220
0.170	22.70	99.7360	4.3671	-25.214
0.178	22.71	99.7318	4.3669	-25.208
0.187	22.73	99.7275	4.3667	-25.203
0.195	22.75	99.7232	4.3665	-25.198
0.203	22.77	99.7188	4.3664	-25.192
0.212	22.79	99.7143	4.3662	-25.187
0.220	22.80	99.7098	4.3660	-25.183
0.228	22.82	99.7051	4.3657	-25.179
0.237	22.84	99.7003	4.3655	-25.176
0.245	22.86	99.6953	4.3653	-25.173
0.253	22.88	99.6903	4.3651	-25.170
0.262	22.90	99.6852	4.3649	-25.167
0.270	22.92	99.6799	4.3646	-25.164
0.278	22.94	99.6746	4.3644	-25.161
0.287	22.95	99.6692	4.3642	-25.159
0.295	22.97	99.6636	4.3639	-25.157
0.303	22.99	99.6580	4.3637	-25.156
0.312	23.01	99.6522	4.3634	-25.154
0.320	23.03	99.6463	4.3632	-25.152
0.328	23.05	99.6403	4.3629	-25.151
0.337	23.07	99.6342	4.3626	-25.150
0.345	23.09	99.6279	4.3624	-25.148
0.353	23.11	99.6215	4.3621	-25.148
0.362	23.13	99.6149	4.3618	-25.147
0.370	23.16	99.6082	4.3615	-25.146
0.378	23.18	99.6013	4.3612	-25.146
0.387	23.20	99.5942	4.3609	-25.146
0.395	23.22	99.5870	4.3606	-25.147
0.403	23.25	99.5797	4.3603	-25.148
0.412	23.27	99.5721	4.3599	-25.149
0.420	23.29	99.5644	4.3596	-25.150
0.428	23.32	99.5566	4.3592	-25.152
0.437	23.34	99.5486	4.3589	-25.155
0.445	23.37	99.5405	4.3585	-25.158
0.453	23.39	99.5323	4.3582	-25.161
0.462	23.42	99.5239	4.3578	-25.165
0.470	23.45	99.5155	4.3574	-25.169
0.478	23.48	99.5069	4.3571	-25.174
0.487	23.50	99.4982	4.3567	-25.180
0.495	23.53	99.4894	4.3563	-25.186
0.503	23.56	99.4805	4.3559	-25.193
0.512	23.59	99.4715	4.3555	-25.201
0.520	23.62	99.4624	4.3551	-25.209
0.528	23.65	99.4532	4.3547	-25.217
0.537	23.68	99.4439	4.3543	-25.226
0.545	23.71	99.4346	4.3539	-25.237
0.553	23.74	99.4251	4.3535	-25.249
0.562	23.78	99.4156	4.3531	-25.261
0.570	23.81	99.4060	4.3527	-25.272
0.578	23.84	99.3964	4.3522	-25.284
0.587	23.88	99.3866	4.3518	-25.296
0.595	23.91	99.3769	4.3514	-25.308
0.603	23.95	99.3671	4.3509	-25.320
0.612	23.98	99.3572	4.3505	-25.332
0.620	24.02	99.3473	4.3501	-25.344
0.628	24.06	99.3373	4.3496	-25.356
0.637	24.09	99.3273	4.3492	-25.367
0.645	24.13	99.3172	4.3488	-25.378
0.653	24.17	99.3072	4.3483	-25.390
0.662	24.21	99.2971	4.3479	-25.403
0.670	24.25	99.2869	4.3474	-25.415
0.678	24.29	99.2768	4.3470	-25.429
0.687	24.33	99.2666	4.3466	-25.443
0.695	24.37	99.2564	4.3461	-25.457
0.703	24.41	99.2462	4.3457	-25.471
0.712	24.46	99.2360	4.3452	-25.486
0.720	24.50	99.2258	4.3448	-25.499
0.728	24.54	99.2156	4.3443	-25.513
0.737	24.59	99.2055	4.3439	-25.526
0.745	24.63	99.1953	4.3434	-25.540
0.753	24.68	99.1851	4.3430	-25.554
0.762	24.72	99.1750	4.3425	-25.568
0.770	24.77	99.1649	4.3421	-25.581
0.778	24.82	99.1549	4.3417	-25.595
0.787	24.86	99.1448	4.3412	-25.609
0.795	24.91	99.1348	4.3408	-25.623
0.803	24.96	99.1248	4.3403	-25.637
0.812	25.01	99.1149	4.3399	-25.651
0.820	25.06	99.1049	4.3395	-25.665
0.828	25.11	99.0951	4.3390	-25.679
0.837	25.16	99.0853	4.3386	-25.694
0.845	25.21	99.0755	4.3382	-25.708
0.853	25.26	99.0658	4.3378	-25.721
0.862	25.32	99.0561	4.3373	-25.735
0.870	25.37	99.0465	4.3369	-25.750
0.878	25.42	99.0369	4.3365	-25.764
0.887	25.48	99.0275	4.3361	-25.779
0.895	25.53	99.0181	4.3357	-25.793
0.903	25.59	99.0087	4.3353	-25.806
0.912	25.64	98.9994	4.3348	-25.819
0.920	25.70	98.9901	4.3344	-25.830
0.928	25.76	98.9810	4.3340	-25.841
0.937	25.82	98.9719	4.3336	-25.852
0.945	25.87	98.9629	4.3333	-25.863
0.953	25.93	98.9539	4.3329	-25.872
0.962	25.99	98.9450	4.3325	-25.881
0.970	26.05	98.9362	4.3321	-25.889
0.978	26.11	98.9274	4.3317	-25.896
0.987	26.17	98.9188	4.3313	-25.902
0.995	26.24	98.9102	4.3309	-25.909
1.003	26.30	98.9016	4.3306	-25.915
1.012	26.36	98.8932	4.3302	-25.921
1.020	26.42	98.8848	4.3298	-25.925
1.028	26.49	98.8764	4.3295	-25.929
1.037	26.55	98.8681	4.3291	-25.933
1.045	26.61	98.8599	4.3287	-25.936
1.053	26.68	98.8517	4.3284	-25.939
1.062	26.75	98.8436	4.3280	-25.941
1.070	26.81	98.8355	4.3277	-25.943
1.078	26.88	98.8275	4.3273	-25.945
1.087	26.95	98.8195	4.3270	-25.945
1.095	27.02	98.8115	4.3266	-25.945
1.103	27.08	98.8036	4.3263	-25.943
1.112	27.15	98.7957	4.3259	-25.940
1.120	27.22	98.7878	4.3256	-25.936
1.128	27.30	98.7800	4.3252	-25.931
1.137	27.37	98.7721	4.3249	-25.925
1.145	27.44	98.7643	4.3246	-25.916
1.153	27.51	98.7566	4.3242	-25.906
1.162	27.58	98.7488	4.3239	-25.893
1.170	27.65	98.7410	4.3235	-25.879
1.178	27.73	98.7333	4.3232	-25.862
1.187	27.80	98.7255	4.3229	-25.844
1.195	27.88	98.7177	4.3225	-25.824
1.203	27.95	98.7100	4.3222	-25.803
1.212	28.03	98.7022	4.3218	-25.779
1.220	28.10	98.6943	4.3215	-25.754
1.228	28.18	98.6865	4.3211	-25.730
1.237	28.25	98.6786	4.3208	-25.705
1.245	28.33	98.6707	4.3205	-25.679
1.253	28.41	98.6628	4.3201	-25.653
1.262	28.49	98.6548	4.3198	-25.626
1.270	28.57	98.6468	4.3194	-25.599
1.278	28.64	98.6387	4.3191	-25.571
1.287	28.72	98.6306	4.3187	-25.541
1.295	28.80	98.6225	4.3183	-25.511
1.303	28.88	98.6144	4.3180	-25.481
1.312	28.96	98.6062	4.3176	-25.450
1.320	29.05	98.5980	4.3173	-25.415
1.328	29.13	98.5897	4.3169	-25.381
1.337	29.21	98.5814	4.3165	-25.346
1.345	29.29	98.5731	4.3162	-25.311
1.353	29.37	98.5647	4.3158	-25.274
1.362	29.46	98.5563	4.3154	-25.236
1.370	29.54	98.5478	4.3151	-25.197
1.378	29.62	98.5394	4.3147	-25.157
1.387	29.71	98.5308	4.3143	-25.116
1.395	29.79	98.5222	4.3140	-25.074
1.403	29.88	98.5135	4.3136	-25.032
1.412	29.96	98.5048	4.3132	-24.988
1.420	30.05	98.4961	4.3128	-24.944
1.428	30.14	98.4873	4.3124	-24.898
1.437	30.22	98.4784	4.3120	-24.852
1.445	30.31	98.4695	4.3116	-24.806
1.453	30.39	98.4606	4.3113	-24.762
1.462	30.48	98.4516	4.3109	-24.715
1.470	30.57	98.4426	4.3105	-24.667
1.478	30.66	98.4335	4.3101	-24.618
1.487	30.74	98.4244	4.3097	-24.569
1.495	30.83	98.4152	4.3093	-24.520
1.503	30.92	98.4060	4.3089	-24.470
1.512	31.01	98.3967	4.3085	-24.419
1.520	31.10	98.3874	4.3081	-24.369
1.528	31.19	98.3781	4.3076	-24.317
1.537	31.28	98.3686	4.3072	-24.264
1.545	31.37	98.3592	4.3068	-24.212
1.553	31.46	98.3496	4.3064	-24.158
1.562	31.55	98.3400	4.3060	-24.103
1.570	31.64	98.3304	4.3056	-24.049
1.578	31.73	98.3207	4.3051	-23.994
1.587	31.82	98.3109	4.3047	-23.939
1.595	31.91	98.3011	4.3043	-23.883
1.603	32.01	98.2912	4.3038	-23.826
1.612	32.10	98.2813	4.3034	-23.769
1.620	32.19	98.2713	4.3030	-23.711
1.628	32.28	98.2613	4.3025	-23.653
1.637	32.37	98.2512	4.3021	-23.596
1.645	32.47	98.2411	4.3016	-23.539
1.653	32.56	98.2309	4.3012	-23.480
1.662	32.65	98.2207	4.3008	-23.421
1.670	32.74	98.2105	4.3003	-23.360
1.678	32.84	98.2002	4.2999	-23.299
1.687	32.93	98.1899	4.2994	-23.238
1.695	33.02	98.1795	4.2989	-23.177
1.703	33.12	98.1691	4.2985	-23.116
1.712	33.21	98.1586	4.2980	-23.054
1.720	33.31	98.1481	4.2976	-22.990
1.728	33.40	98.1375	4.2971	-22.928
1.737	33.49	98.1269	4.2966	-22.866
1.745	33.59	98.1162	4.2962	-22.803
1.753	33.68	98.1055	4.2957	-22.741
1.762	33.78	98.0947	4.2952	-22.678
1.770	33.87	98.0839	4.2948	-22.614
1.778	33.97	98.0731	4.2943	-22.551
1.787	34.06	98.0622	4.2938	-22.486
1.795	34.16	98.0512	4.2933	-22.422
1.803	34.25	98.0402	4.2929	-22.359
1.812	34.35	98.0292	4.2924	-22.293
1.820	34.44	98.0181	4.2919	-22.228
1.828	34.54	98.0070	4.2914	-22.164
1.837	34.64	97.9959	4.2909	-22.099
1.845	34.73	97.9847	4.2904	-22.033
1.853	34.83	97.9734	4.2899	-21.968
1.862	34.92	97.9622	4.2894	-21.903
1.870	35.02	97.9509	4.2889	-21.837
1.878	35.12	97.9395	4.2884	-21.771
1.887	35.21	97.9281	4.2879	-21.705
1.895	35.31	97.9167	4.2874	-21.638
1.903	35.40	97.9052	4.2869	-21.570
1.912	35.50	97.8937	4.2864	-21.503
1.920	35.60	97.8821	4.2859	-21.436
1.928	35.69	97.8705	4.2854	-21.369
1.937	35.79	97.8588	4.2849	-21.303
1.945	35.89	97.8471	4.2844	-21.237
1.953	35.98	97.8354	4.2839	-21.169
1.962	36.08	97.8236	4.2834	-21.101
1.970	36.18	97.8118	4.2828	-21.032
1.978	36.27	97.7998	4.2823	-20.965
1.987	36.37	97.7879	4.2818	-20.898
1.995	36.47	97.7759	4.2813	-20.830
2.003	36.56	97.7638	4.2807	-20.763
2.012	36.66	97.7517	4.2802	-20.696
2.020	36.76	97.7396	4.2797	-20.628
2.028	36.85	97.7274	4.2792	-20.560
2.037	36.95	97.7151	4.2786	-20.493
2.045	37.05	97.7028	4.2781	-20.425
2.053	37.14	97.6905	4.2775	-20.358
2.062	37.24	97.6781	4.2770	-20.290
2.070	37.34	97.6657	4.2765	-20.221
2.078	37.44	97.6533	4.2759	-20.152
2.087	37.53	97.6408	4.2754	-20.083
2.095	37.63	97.6283	4.2748	-20.013
2.103	37.73	97.6158	4.2743	-19.944
2.112	37.82	97.6032	4.2737	-19.875
2.120	37.92	97.5906	4.2732	-19.806
2.128	38.02	97.5779	4.2726	-19.737
2.137	38.11	97.5652	4.2721	-19.667
2.145	38.21	97.5525	4.2715	-19.598
2.153	38.31	97.5397	4.2709	-19.530
2.162	38.40	97.5269	4.2704	-19.462
2.170	38.50	97.5140	4.2698	-19.393
2.178	38.60	97.5011	4.2692	-19.323
2.187	38.69	97.4882	4.2687	-19.254
2.195	38.79	97.4752	4.2681	-19.184
2.203	38.89	97.4622	4.2675	-19.114
2.212	38.99	97.4492	4.2670	-19.044
2.220	39.08	97.4361	4.2664	-18.976
2.228	39.18	97.4230	4.2658	-18.907
2.237	39.28	97.4099	4.2653	-18.837
2.245	39.37	97.3967	4.2647	-18.767
2.253	39.47	97.3835	4.2641	-18.697
2.262	39.57	97.3703	4.2635	-18.627
2.270	39.66	97.3570	4.2629	-18.558
2.278	39.76	97.3437	4.2624	-18.489
2.287	39.86	97.3304	4.2618	-18.421
2.295	39.95	97.3170	4.2612	-18.353
2.303	40.05	97.3036	4.2606	-18.283
2.312	40.14	97.2902	4.2600	-18.214
2.320	40.24	97.2768	4.2594	-18.144
2.328	40.34	97.2633	4.2588	-18.074
2.337	40.43	97.2498	4.2582	-18.005
2.345	40.53	97.2362	4.2576	-17.936
2.353	40.62	97.2226	4.2571	-17.867
2.362	40.72	97.2090	4.2565	-17.797
2.370	40.82	97.1953	4.2559	-17.728
2.378	40.91	97.1816	4.2553	-17.657
2.387	41.01	97.1679	4.2547	-17.587
2.395	41.10	97.1541	4.2541	-17.519
2.403	41.20	97.1403	4.2534	-17.451
2.412	41.29	97.1265	4.2528	-17.383
2.420	41.39	97.1126	4.2522	-17.314
2.428	41.48	97.0987	4.2516	-17.247
2.437	41.58	97.0848	4.2510	-17.179
2.445	41.68	97.0708	4.2504	-17.112
2.453	41.77	97.0568	4.2498	-17.044
2.462	41.87	97.0428	4.2492	-16.976
2.470	41.96	97.0287	4.2486	-16.908
2.478	42.06	97.0146	4.2479	-16.840
2.487	42.15	97.0004	4.2473	-16.772
2.495	42.24	96.9863	4.2467	-16.704
2.503	42.34	96.9721	4.2461	-16.636
2.512	42.43	96.9579	4.2455	-16.568
2.520	42.53	96.9436	4.2448	-16.500
2.528	42.62	96.9293	4.2442	-16.432
2.537	42.72	96.9150	4.2436	-16.364
2.545	42.81	96.9007	4.2430	-16.297
2.553	42.91	96.8863	4.2423	-16.230
2.562	43.00	96.8719	4.2417	-16.163
2.570	43.09	96.8575	4.2411	-16.096
2.578	43.19	96.8430	4.2404	-16.028
2.587	43.28	96.8286	4.2398	-15.963
2.595	43.38	96.8141	4.2392	-15.897
2.603	43.47	96.7995	4.2385	-15.831
2.612	43.56	96.7850	4.2379	-15.765
2.620	43.66	96.7705	4.2373	-15.698
2.628	43.75	96.7559	4.2366	-15.631
2.637	43.84	96.7413	4.2360	-15.566
2.645	43.94	96.7266	4.2353	-15.500
2.653	44.03	96.7120	4.2347	-15.435
2.662	44.12	96.6973	4.2340	-15.369
2.670	44.22	96.6826	4.2334	-15.303
2.678	44.31	96.6678	4.2328	-15.237
2.687	44.40	96.6531	4.2321	-15.170
2.695	44.49	96.6383	4.2315	-15.105
2.703	44.59	96.6235	4.2308	-15.039
2.712	44.68	96.6087	4.2302	-14.973
2.720	44.77	96.5938	4.2295	-14.907
2.728	44.87	96.5789	4.2289	-14.840
2.737	44.96	96.5641	4.2282	-14.774
2.745	45.05	96.5492	4.2276	-14.708
2.753	45.14	96.5343	4.2269	-14.643
2.762	45.23	96.5194	4.2263	-14.578
2.770	45.33	96.5044	4.2256	-14.512
2.778	45.42	96.4895	4.2249	-14.447
2.787	45.51	96.4745	4.2243	-14.381
2.795	45.60	96.4595	4.2236	-14.317
2.803	45.69	96.4445	4.2230	-14.253
2.812	45.79	96.4295	4.2223	-14.188
2.820	45.88	96.4145	4.2217	-14.123
2.828	45.97	96.3995	4.2210	-14.058
2.837	46.06	96.3844	4.2203	-13.994
2.845	46.15	96.3694	4.2197	-13.930
2.853	46.24	96.3543	4.2190	-13.866
2.862	46.33	96.3393	4.2184	-13.802
2.870	46.43	96.3242	4.2177	-13.740
2.878	46.52	96.3091	4.2171	-13.676
2.887	46.61	96.2940	4.2164	-13.613
2.895	46.70	96.2789	4.2157	-13.549
2.903	46.79	96.2638	4.2151	-13.486
2.912	46.88	96.2487	4.2144	-13.423
2.920	46.97	96.2336	4.2137	-13.361
2.928	47.06	96.2185	4.2131	-13.298
2.937	47.15	96.2033	4.2124	-13.235
2.945	47.24	96.1882	4.2118	-13.172
2.953	47.33	96.1730	4.2111	-13.108
2.962	47.42	96.1578	4.2104	-13.046
2.970	47.51	96.1426	4.2098	-12.983
2.978	47.60	96.1274	4.2091	-12.920
2.987	47.69	96.1122	4.2084	-12.858
2.995	47.78	96.0969	4.2078	-12.795
3.003	47.87	96.0816	4.2071	-12.733
3.012	47.96	96.0664	4.2064	-12.670
3.020	48.05	96.0511	4.2058	-12.608
3.028	48.14	96.0358	4.2051	-12.546
3.037	48.23	96.0205	4.2044	-12.484
3.045	48.32	96.0052	4.2037	-12.422
3.053	48.41	95.9899	4.2031	-12.361
3.062	48.50	95.9746	4.2024	-12.300
3.070	48.59	95.9594	4.2017	-12.238
3.078	48.68	95.9441	4.2011	-12.178
3.087	48.77	95.9288	4.2004	-12.117
3.095	48.85	95.9135	4.1997	-12.056
3.103	48.94	95.8983	4.1991	-11.995
3.112	49.03	95.8830	4.1984	-11.936
3.120	49.12	95.8677	4.1977	-11.875
3.128	49.21	95.8524	4.1971	-11.814
3.137	49.30	95.8372	4.1964	-11.754
3.145	49.39	95.8219	4.1957	-11.694
3.153	49.48	95.8066	4.1950	-11.634
3.162	49.56	95.7913	4.1944	-11.574
3.170	49.65	95.7761	4.1937	-11.514
3.178	49.74	95.7608	4.1930	-11.455
3.187	49.83	95.7456	4.1924	-11.395
3.195	49.92	95.7303	4.1917	-11.335
3.203	50.01	95.7151	4.1910	-11.276
3.212	50.09	95.6999	4.1904	-11.216
3.220	50.18	95.6847	4.1897	-11.157
3.228	50.27	95.6695	4.1890	-11.098
3.237	50.36	95.6542	4.1884	-11.038
3.245	50.44	95.6390	4.1877	-10.980
3.253	50.53	95.6238	4.1870	-10.921
3.262	50.62	95.6087	4.1864	-10.862
3.270	50.71	95.5935	4.1857	-10.803
3.278	50.80	95.5783	4.1851	-10.744
3.287	50.88	95.5631	4.1844	-10.685
3.295	50.97	95.5480	4.1837	-10.627
3.303	51.06	95.5328	4.1831	-10.568
3.312	51.15	95.5177	4.1824	-10.508
3.320	51.23	95.5026	4.1817	-10.451
3.328	51.32	95.4874	4.1811	-10.392
3.337	51.41	95.4723	4.1804	-10.333
3.345	51.49	95.4572	4.1797	-10.274
3.353	51.58	95.4421	4.1791	-10.217
3.362	51.67	95.4270	4.1784	-10.159
3.370	51.76	95.4120	4.1778	-10.102
3.378	51.84	95.3969	4.1771	-10.044
3.387	51.93	95.3818	4.1764	-9.987
3.395	52.02	95.3668	4.1758	-9.930
3.403	52.10	95.3518	4.1751	-9.872
3.412	52.19	95.3368	4.1745	-9.815
3.420	52.28	95.3218	4.1738	-9.757
3.428	52.36	95.3068	4.1732	-9.701
3.437	52.45	95.2918	4.1725	-9.645
3.445	52.54	95.2769	4.1719	-9.588
3.453	52.62	95.2620	4.1712	-9.530
3.462	52.71	95.2471	4.1705	-9.474
3.470	52.80	95.2322	4.1699	-9.416
3.478	52.88	95.2174	4.1692	-9.359
3.487	52.97	95.2026	4.1686	-9.302
3.495	53.05	95.1878	4.1680	-9.246
3.503	53.14	95.1730	4.1673	-9.190
3.512	53.23	95.1582	4.1667	-9.132
3.520	53.31	95.1435	4.1660	-9.075
3.528	53.40	95.1287	4.1654	-9.019
3.537	53.49	95.1140	4.1647	-8.962
3.545	53.57	95.0993	4.1641	-8.906
3.553	53.66	95.0845	4.1634	-8.850
3.562	53.74	95.0698	4.1628	-8.793
3.570	53.83	95.0552	4.1621	-8.737
3.578	53.92	95.0404	4.1615	-8.680
3.587	54.00	95.0258	4.1609	-8.624
3.595	54.09	95.0111	4.1602	-8.568
3.603	54.17	94.9965	4.1596	-8.513
3.612	54.26	94.9818	4.1589	-8.457
3.620	54.35	94.9673	4.1583	-8.402
3.628	54.43	94.9527	4.1577	-8.346
3.637	54.52	94.9382	4.1570	-8.291
3.645	54.60	94.9237	4.1564	-8.236
3.653	54.69	94.9093	4.1558	-8.181
3.662	54.77	94.8949	4.1551	-8.125
3.670	54.86	94.8805	4.1545	-8.070
3.678	54.95	94.8661	4.1539	-8.015
3.687	55.03	94.8518	4.1532	-7.959
3.695	55.12	94.8376	4.1526	-7.905
3.703	55.20	94.8233	4.1520	-7.851
3.712	55.29	94.8091	4.1514	-7.797
3.720	55.37	94.7949	4.1507	-7.742
3.728	55.46	94.7808	4.1501	-7.687
3.737	55.54	94.7666	4.1495	-7.634
3.745	55.63	94.7525	4.1489	-7.580
3.753	55.71	94.7385	4.1483	-7.526
3.762	55.80	94.7244	4.1477	-7.472
3.770	55.88	94.7104	4.1470	-7.419
3.778	55.97	94.6964	4.1464	-7.364
3.787	56.05	94.6825	4.1458	-7.309
3.795	56.14	94.6685	4.1452	-7.254
3.803	56.23	94.6546	4.1446	-7.200
3.812	56.31	94.6408	4.1440	-7.147
3.820	56.40	94.6269	4.1434	-7.093
3.828	56.48	94.6131	4.1428	-7.038
3.837	56.57	94.5993	4.1422	-6.984
3.845	56.65	94.5856	4.1416	-6.930
3.853	56.74	94.5718	4.1410	-6.877
3.862	56.82	94.5582	4.1404	-6.824
3.870	56.91	94.5445	4.1398	-6.772
3.878	57.00	94.5308	4.1392	-6.718
3.887	57.08	94.5172	4.1386	-6.664
3.895	57.17	94.5036	4.1380	-6.611
3.903	57.25	94.4901	4.1374	-6.557
3.912	57.34	94.4766	4.1368	-6.505
3.920	57.42	94.4631	4.1362	-6.453
3.928	57.51	94.4497	4.1356	-6.399
3.937	57.59	94.4363	4.1350	-6.345
3.945	57.68	94.4229	4.1345	-6.293
3.953	57.76	94.4095	4.1339	-6.240
3.962	57.85	94.3962	4.1333	-6.187
3.970	57.93	94.3830	4.1327	-6.134
3.978	58.02	94.3698	4.1321	-6.081
3.987	58.10	94.3566	4.1316	-6.028
3.995	58.19	94.3434	4.1310	-5.974
4.003	58.27	94.3304	4.1304	-5.922
4.012	58.36	94.3173	4.1298	-5.870
4.020	58.44	94.3042	4.1293	-5.819
4.028	58.53	94.2912	4.1287	-5.766
4.037	58.61	94.2783	4.1281	-5.713
4.045	58.70	94.2654	4.1276	-5.661
4.053	58.78	94.2524	4.1270	-5.610
4.062	58.87	94.2396	4.1264	-5.559
4.070	58.95	94.2268	4.1259	-5.507
4.078	59.04	94.2140	4.1253	-5.455
4.087	59.12	94.2013	4.1248	-5.403
4.095	59.21	94.1886	4.1242	-5.350
4.103	59.29	94.1760	4.1236	-5.298
4.112	59.38	94.1634	4.1231	-5.246
4.120	59.46	94.1509	4.1225	-5.195
4.128	59.55	94.1384	4.1220	-5.143
4.137	59.63	94.1259	4.1215	-5.091
4.145	59.72	94.1134	4.1209	-5.040
4.153	59.80	94.1011	4.1204	-4.988
4.162	59.89	94.0887	4.1198	-4.936
4.170	59.97	94.0764	4.1193	-4.884
4.178	60.06	94.0641	4.1187	-4.834
4.187	60.14	94.0518	4.1182	-4.781
4.195	60.23	94.0396	4.1177	-4.730
4.203	60.31	94.0275	4.1171	-4.679
4.212	60.40	94.0153	4.1166	-4.628
4.220	60.48	94.0032	4.1161	-4.577
4.228	60.57	93.9912	4.1156	-4.526
4.237	60.66	93.9792	4.1150	-4.475
4.245	60.74	93.9672	4.1145	-4.424
4.253	60.83	93.9552	4.1140	-4.373
4.262	60.91	93.9433	4.1135	-4.322
4.270	61.00	93.9315	4.1129	-4.272
4.278	61.08	93.9196	4.1124	-4.222
4.287	61.17	93.9078	4.1119	-4.171
4.295	61.25	93.8960	4.1114	-4.121
4.303	61.34	93.8843	4.1109	-4.070
4.312	61.42	93.8726	4.1104	-4.019
4.320	61.51	93.8609	4.1099	-3.969
4.328	61.59	93.8493	4.1093	-3.920
4.337	61.68	93.8377	4.1088	-3.870
4.345	61.76	93.8262	4.1083	-3.820
4.353	61.85	93.8147	4.1078	-3.770
4.362	61.93	93.8032	4.1073	-3.719
4.370	62.02	93.7918	4.1068	-3.670
4.378	62.11	93.7804	4.1063	-3.620
4.387	62.19	93.7691	4.1058	-3.571
4.395	62.28	93.7578	4.1053	-3.522
4.403	62.36	93.7465	4.1048	-3.472
4.412	62.45	93.7353	4.1044	-3.423
4.420	62.53	93.7242	4.1039	-3.375
4.428	62.62	93.7130	4.1034	-3.326
4.437	62.70	93.7019	4.1029	-3.278
4.445	62.79	93.6909	4.1024	-3.228
4.453	62.87	93.6799	4.1019	-3.178
4.462	62.96	93.6689	4.1014	-3.130
4.470	63.04	93.6580	4.1010	-3.080
4.478	63.13	93.6471	4.1005	-3.031
4.487	63.21	93.6362	4.1000	-2.983
4.495	63.30	93.6254	4.0995	-2.934
4.503	63.39	93.6145	4.0991	-2.884
4.512	63.47	93.6037	4.0986	-2.836
4.520	63.56	93.5930	4.0981	-2.788
4.528	63.64	93.5823	4.0977	-2.742
4.537	63.73	93.5716	4.0972	-2.694
4.545	63.81	93.5609	4.0967	-2.646
4.553	63.90	93.5503	4.0963	-2.599
4.562	63.98	93.5397	4.0958	-2.552
4.570	64.07	93.5291	4.0953	-2.504
4.578	64.15	93.5186	4.0949	-2.457
4.587	64.24	93.5081	4.0944	-2.410
4.595	64.33	93.4977	4.0939	-2.361
4.603	64.41	93.4872	4.0935	-2.313
4.612	64.50	93.4769	4.0930	-2.265
4.620	64.58	93.4665	4.0926	-2.218
4.628	64.67	93.4562	4.0921	-2.171
4.637	64.75	93.4460	4.0917	-2.124
4.645	64.84	93.4358	4.0912	-2.077
4.653	64.93	93.4256	4.0908	-2.030
4.662	65.01	93.4155	4.0903	-1.983
4.670	65.10	93.4054	4.0899	-1.937
4.678	65.18	93.3953	4.0895	-1.893
4.687	65.27	93.3853	4.0890	-1.847
4.695	65.35	93.3753	4.0886	-1.802
4.703	65.44	93.3653	4.0882	-1.757
4.712	65.53	93.3554	4.0877	-1.711
4.720	65.61	93.3455	4.0873	-1.666
4.728	65.70	93.3357	4.0869	-1.621
4.737	65.78	93.3259	4.0864	-1.576
4.745	65.87	93.3161	4.0860	-1.531
4.753	65.95	93.3063	4.0856	-1.486
4.762	66.04	93.2966	4.0851	-1.439
4.770	66.13	93.2868	4.0847	-1.393
4.778	66.21	93.2771	4.0843	-1.347
4.787	66.30	93.2674	4.0839	-1.302
4.795	66.38	93.2578	4.0834	-1.256
4.803	66.47	93.2482	4.0830	-1.210
4.812	66.55	93.2386	4.0826	-1.165
4.820	66.64	93.2290	4.0822	-1.119
4.828	66.73	93.2195	4.0818	-1.075
4.837	66.81	93.2100	4.0814	-1.030
4.845	66.90	93.2005	4.0809	-0.987
4.853	66.98	93.1911	4.0805	-0.943
4.862	67.07	93.1817	4.0801	-0.900
4.870	67.16	93.1724	4.0797	-0.856
4.878	67.24	93.1631	4.0793	-0.813
4.887	67.33	93.1538	4.0789	-0.770
4.895	67.41	93.1445	4.0785	-0.726
4.903	67.50	93.1353	4.0781	-0.683
4.912	67.59	93.1261	4.0777	-0.641
4.920	67.67	93.1170	4.0773	-0.597
4.928	67.76	93.1078	4.0769	-0.554
4.937	67.84	93.0988	4.0765	-0.511
4.945	67.93	93.0897	4.0761	-0.467
4.953	68.02	93.0807	4.0757	-0.425
4.962	68.10	93.0717	4.0753	-0.382
4.970	68.19	93.0628	4.0749	-0.339
4.978	68.27	93.0539	4.0745	-0.297
4.987	68.36	93.0450	4.0741	-0.254
4.995	68.45	93.0362	4.0737	-0.212
5.003	68.53	93.0274	4.0734	-0.170
5.012	68.62	93.0186	4.0730	-0.127
5.020	68.70	93.0098	4.0726	-0.085
5.028	68.79	93.0011	4.0722	-0.042
5.037	68.88	92.9924	4.0718	0.001
5.045	68.96	92.9838	4.0714	0.043
5.053	69.05	92.9752	4.0711	0.085
5.062	69.13	92.9667	4.0707	0.128
5.070	69.22	92.9581	4.0703	0.171
5.078	69.31	92.9496	4.0700	0.213
5.087	69.39	92.9412	4.0696	0.255
5.095	69.48	92.9328	4.0692	0.297
5.103	69.57	92.9243	4.0688	0.339
5.112	69.65	92.9160	4.0685	0.380
5.120	69.74	92.9076	4.0681	0.421
5.128	69.82	92.8993	4.0677	0.462
5.137	69.91	92.8910	4.0674	0.503
5.145	70.00	92.8828	4.0670	0.542
5.153	70.08	92.8745	4.0667	0.583
5.162	70.17	92.8663	4.0663	0.624
5.170	70.25	92.8581	4.0659	0.665
5.178	70.34	92.8500	4.0656	0.706
5.187	70.43	92.8419	4.0652	0.746
5.195	70.51	92.8338	4.0649	0.787
5.203	70.60	92.8257	4.0645	0.828
5.212	70.69	92.8177	4.0642	0.869
5.220	70.77	92.8096	4.0638	0.912
5.228	70.86	92.8017	4.0635	0.953
5.237	70.95	92.7937	4.0631	0.995
5.245	71.03	92.7858	4.0628	1.034
5.253	71.12	92.7779	4.0624	1.075
5.262	71.20	92.7701	4.0621	1.115
5.270	71.29	92.7622	4.0617	1.155
5.278	71.38	92.7544	4.0614	1.194
5.287	71.46	92.7467	4.0611	1.234
5.295	71.55	92.7389	4.0607	1.274
5.303	71.64	92.7312	4.0604	1.312
5.312	71.72	92.7235	4.0601	1.352
5.320	71.81	92.7159	4.0597	1.392
5.328	71.90	92.7083	4.0594	1.432
5.337	71.98	92.7007	4.0591	1.471
5.345	72.07	92.6932	4.0587	1.510
5.353	72.16	92.6856	4.0584	1.548
5.362	72.24	92.6782	4.0581	1.588
5.370	72.33	92.6707	4.0577	1.626
5.378	72.42	92.6633	4.0574	1.664
5.387	72.50	92.6559	4.0571	1.702
5.395	72.59	92.6486	4.0568	1.741
5.403	72.68	92.6413	4.0565	1.778
5.412	72.76	92.6340	4.0561	1.816
5.420	72.85	92.6268	4.0558	1.853
5.428	72.94	92.6196	4.0555	1.892
5.437	73.02	92.6125	4.0552	1.930
5.445	73.11	92.6053	4.0549	1.969
5.453	73.20	92.5983	4.0546	2.007
5.462	73.28	92.5912	4.0543	2.045
5.470	73.37	92.5841	4.0539	2.082
5.478	73.46	92.5771	4.0536	2.118
5.487	73.54	92.5701	4.0533	2.156
5.495	73.63	92.5632	4.0530	2.193
5.503	73.72	92.5562	4.0527	2.230
5.512	73.80	92.5493	4.0524	2.266
5.520	73.89	92.5425	4.0521	2.303
5.528	73.98	92.5356	4.0518	2.340
5.537	74.06	92.5288	4.0515	2.376
5.545	74.15	92.5220	4.0512	2.413
5.553	74.24	92.5153	4.0509	2.450
5.562	74.32	92.5085	4.0506	2.486
5.570	74.41	92.5018	4.0503	2.521
5.578	74.50	92.4951	4.0500	2.556
5.587	74.58	92.4884	4.0498	2.594
5.595	74.67	92.4818	4.0495	2.629
5.603	74.76	92.4752	4.0492	2.664
5.612	74.84	92.4686	4.0489	2.699
5.620	74.93	92.4621	4.0486	2.733
5.628	75.02	92.4555	4.0483	2.767
5.637	75.10	92.4491	4.0480	2.802
5.645	75.19	92.4426	4.0478	2.838
5.653	75.28	92.4362	4.0475	2.874
5.662	75.36	92.4298	4.0472	2.910
5.670	75.45	92.4235	4.0469	2.943
5.678	75.54	92.4171	4.0466	2.979
5.687	75.62	92.4108	4.0464	3.014
5.695	75.71	92.4046	4.0461	3.049
5.703	75.80	92.3983	4.0458	3.085
5.712	75.88	92.3921	4.0455	3.120
5.720	75.97	92.3859	4.0453	3.154
5.728	76.06	92.3797	4.0450	3.187
5.737	76.15	92.3736	4.0447	3.221
5.745	76.23	92.3675	4.0445	3.255
5.753	76.32	92.3613	4.0442	3.288
5.762	76.40	92.3552	4.0439	3.321
5.770	76.49	92.3492	4.0437	3.354
5.778	76.58	92.3431	4.0434	3.388
5.787	76.67	92.3371	4.0431	3.422
5.795	76.75	92.3311	4.0429	3.455
5.803	76.84	92.3251	4.0426	3.488
5.812	76.93	92.3192	4.0423	3.521
5.820	77.01	92.3133	4.0421	3.553
5.828	77.10	92.3074	4.0418	3.587
5.837	77.19	92.3015	4.0416	3.620
5.845	77.27	92.2957	4.0413	3.652
5.853	77.36	92.2899	4.0411	3.685
5.862	77.45	92.2840	4.0408	3.718
5.870	77.53	92.2783	4.0406	3.749
5.878	77.62	92.2725	4.0403	3.781
5.887	77.71	92.2668	4.0401	3.813
5.895	77.79	92.2611	4.0398	3.846
5.903	77.88	92.2554	4.0396	3.878
5.912	77.97	92.2497	4.0393	3.909
5.920	78.05	92.2441	4.0391	3.940
5.928	78.14	92.2385	4.0388	3.972
5.937	78.23	92.2330	4.0386	4.004
5.945	78.31	92.2274	4.0383	4.035
5.953	78.40	92.2219	4.0381	4.066
5.962	78.49	92.2164	4.0378	4.097
5.970	78.57	92.2110	4.0376	4.129
5.978	78.66	92.2055	4.0374	4.160
5.987	78.75	92.2001	4.0371	4.190
5.995	78.83	92.1947	4.0369	4.221
6.003	78.92	92.1893	4.0367	4.253
6.012	79.01	92.1839	4.0364	4.284
6.020	79.09	92.1786	4.0362	4.313
6.028	79.18	92.1733	4.0360	4.343
6.037	79.27	92.1679	4.0357	4.373
6.045	79.35	92.1626	4.0355	4.403
6.053	79.44	92.1573	4.0353	4.432
6.062	79.53	92.1521	4.0350	4.461
6.070	79.61	92.1469	4.0348	4.492
6.078	79.70	92.1417	4.0346	4.522
6.087	79.79	92.1365	4.0343	4.552
6.095	79.87	92.1313	4.0341	4.581
6.103	79.96	92.1262	4.0339	4.611
6.112	80.05	92.1211	4.0337	4.640
6.120	80.13	92.1161	4.0335	4.668
6.128	80.22	92.1110	4.0332	4.698
6.137	80.31	92.1060	4.0330	4.727
6.145	80.39	92.1011	4.0328	4.757
6.153	80.48	92.0961	4.0326	4.785
6.162	80.57	92.0912	4.0324	4.814
6.170	80.66	92.0863	4.0321	4.842
6.178	80.74	92.0814	4.0319	4.871
6.187	80.83	92.0765	4.0317	4.900
6.195	80.92	92.0716	4.0315	4.928
6.203	81.00	92.0668	4.0313	4.957
6.212	81.09	92.0620	4.0311	4.985
6.220	81.18	92.0572	4.0309	5.012
6.228	81.26	92.0524	4.0307	5.040
6.237	81.35	92.0477	4.0305	5.068
6.245	81.44	92.0429	4.0302	5.096
6.253	81.52	92.0382	4.0300	5.124
6.262	81.61	92.0335	4.0298	5.151
6.270	81.70	92.0288	4.0296	5.179
6.278	81.78	92.0242	4.0294	5.206
6.287	81.87	92.0195	4.0292	5.233
6.295	81.96	92.0149	4.0290	5.261
6.303	82.04	92.0103	4.0288	5.288
6.312	82.13	92.0057	4.0286	5.314
6.320	82.22	92.0011	4.0284	5.340
6.328	82.30	91.9965	4.0282	5.366
6.337	82.39	91.9920	4.0280	5.391
6.345	82.48	91.9875	4.0278	5.416
6.353	82.56	91.9830	4.0276	5.442
6.362	82.65	91.9785	4.0274	5.467
6.370	82.74	91.9741	4.0272	5.493
6.378	82.82	91.9697	4.0270	5.520
6.387	82.91	91.9652	4.0268	5.547
6.395	83.00	91.9609	4.0267	5.574
6.403	83.08	91.9565	4.0265	5.600
6.412	83.17	91.9522	4.0263	5.626
6.420	83.26	91.9479	4.0261	5.653
6.428	83.34	91.9436	4.0259	5.680
6.437	83.43	91.9394	4.0257	5.706
6.445	83.52	91.9351	4.0255	5.732
6.453	83.60	91.9309	4.0253	5.757
6.462	83.69	91.9267	4.0252	5.781
6.470	83.78	91.9225	4.0250	5.805
6.478	83.86	91.9184	4.0248	5.829
6.487	83.95	91.9142	4.0246	5.854
6.495	84.04	91.9101	4.0244	5.878
6.503	84.12	91.9060	4.0243	5.901
6.512	84.21	91.9019	4.0241	5.924
6.520	84.30	91.8978	4.0239	5.947
6.528	84.38	91.8937	4.0237	5.970
6.537	84.47	91.8897	4.0235	5.994
6.545	84.56	91.8856	4.0234	6.018
6.553	84.64	91.8816	4.0232	6.042
6.562	84.73	91.8776	4.0230	6.065
6.570	84.82	91.8736	4.0228	6.089
6.578	84.90	91.8696	4.0227	6.113
6.587	84.99	91.8656	4.0225	6.137
6.595	85.08	91.8616	4.0223	6.160
6.603	85.16	91.8577	4.0221	6.184
6.612	85.25	91.8538	4.0220	6.208
6.620	85.34	91.8499	4.0218	6.231
6.628	85.42	91.8460	4.0216	6.254
6.637	85.51	91.8421	4.0215	6.277
6.645	85.60	91.8383	4.0213	6.300
6.653	85.68	91.8344	4.0211	6.323
6.662	85.77	91.8307	4.0210	6.345
6.670	85.85	91.8269	4.0208	6.367
6.678	85.94	91.8231	4.0206	6.391
6.687	86.03	91.8194	4.0205	6.414
6.695	86.11	91.8157	4.0203	6.436
6.703	86.20	91.8120	4.0201	6.458
6.712	86.29	91.8084	4.0200	6.479
6.720	86.37	91.8048	4.0198	6.502
6.728	86.46	91.8011	4.0197	6.524
6.737	86.55	91.7975	4.0195	6.546
6.745	86.63	91.7939	4.0193	6.567
6.753	86.72	91.7904	4.0192	6.589
6.762	86.81	91.7868	4.0190	6.611
6.770	86.89	91.7832	4.0189	6.633
6.778	86.98	91.7797	4.0187	6.655
6.787	87.07	91.7762	4.0186	6.677
6.795	87.15	91.7727	4.0184	6.698
6.803	87.24	91.7691	4.0183	6.719
6.812	87.33	91.7657	4.0181	6.740
6.820	87.41	91.7622	4.0180	6.760
6.828	87.50	91.7587	4.0178	6.781
6.837	87.59	91.7553	4.0177	6.801
6.845	87.67	91.7519	4.0175	6.821
6.853	87.76	91.7485	4.0174	6.841
6.862	87.85	91.7451	4.0172	6.861
6.870	87.93	91.7417	4.0171	6.881
6.878	88.02	91.7384	4.0169	6.901
6.887	88.10	91.7350	4.0168	6.921
6.895	88.19	91.7317	4.0166	6.940
6.903	88.28	91.7284	4.0165	6.959
6.912	88.36	91.7252	4.0163	6.977
6.920	88.45	91.7219	4.0162	6.996
6.928	88.54	91.7186	4.0160	7.015
6.937	88.62	91.7154	4.0159	7.034
6.945	88.71	91.7121	4.0158	7.053
6.953	88.80	91.7089	4.0156	7.073
6.962	88.88	91.7057	4.0155	7.092
6.970	88.97	91.7025	4.0153	7.111
6.978	89.05	91.6993	4.0152	7.131
6.987	89.14	91.6962	4.0151	7.150
6.995	89.23	91.6930	4.0149	7.170
7.003	89.31	91.6899	4.0148	7.189
7.012	89.40	91.6868	4.0147	7.209
7.020	89.49	91.6837	4.0145	7.227
7.028	89.57	91.6806	4.0144	7.245
7.037	89.66	91.6775	4.0142	7.263
7.045	89.75	91.6744	4.0141	7.280
7.053	89.83	91.6714	4.0140	7.298
7.062	89.92	91.6683	4.0138	7.316
7.070	90.00	91.6653	4.0137	7.334
7.078	90.09	91.6623	4.0136	7.352
7.087	90.18	91.6593	4.0135	7.370
7.095	90.26	91.6563	4.0133	7.387
7.103	90.35	91.6534	4.0132	7.405
7.112	90.44	91.6504	4.0131	7.422
7.120	90.52	91.6475	4.0129	7.439
7.128	90.61	91.6446	4.0128	7.456
7.137	90.70	91.6417	4.0127	7.472
7.145	90.78	91.6389	4.0126	7.489
7.153	90.87	91.6360	4.0124	7.506
7.162	90.95	91.6331	4.0123	7.523
7.170	91.04	91.6303	4.0122	7.539
7.178	91.13	91.6275	4.0121	7.556
7.187	91.21	91.6247	4.0119	7.573
7.195	91.30	91.6219	4.0118	7.590
7.203	91.39	91.6191	4.0117	7.607
7.212	91.47	91.6163	4.0116	7.623
7.220	91.56	91.6135	4.0114	7.641
7.228	91.64	91.6107	4.0113	7.658
7.237	91.73	91.6080	4.0112	7.673
7.245	91.82	91.6053	4.0111	7.689
7.253	91.90	91.6025	4.0110	7.705
7.262	91.99	91.5998	4.0108	7.720
7.270	92.08	91.5970	4.0107	7.734
7.278	92.16	91.5943	4.0106	7.748
7.287	92.25	91.5916	4.0105	7.762
7.295	92.33	91.5889	4.0104	7.776
7.303	92.42	91.5863	4.0103	7.790
7.312	92.51	91.5836	4.0101	7.805
7.320	92.59	91.5809	4.0100	7.820
7.328	92.68	91.5783	4.0099	7.836
7.337	92.76	91.5757	4.0098	7.852
7.345	92.85	91.5731	4.0097	7.867
7.353	92.94	91.5705	4.0096	7.883
7.362	93.02	91.5679	4.0095	7.898
7.370	93.11	91.5654	4.0093	7.914
7.378	93.19	91.5629	4.0092	7.930
7.387	93.28	91.5603	4.0091	7.945
7.395	93.37	91.5578	4.0090	7.959
7.403	93.45	91.5553	4.0089	7.974
7.412	93.54	91.5528	4.0088	7.988
7.420	93.62	91.5502	4.0087	8.001
7.428	93.71	91.5478	4.0086	8.016
7.437	93.80	91.5453	4.0085	8.030
7.445	93.88	91.5428	4.0084	8.044
7.453	93.97	91.5404	4.0082	8.058
7.462	94.05	91.5380	4.0081	8.072
7.470	94.14	91.5356	4.0080	8.086
7.478	94.23	91.5332	4.0079	8.099
7.487	94.31	91.5309	4.0078	8.111
7.495	94.40	91.5285	4.0077	8.124
7.503	94.49	91.5262	4.0076	8.137
7.512	94.57	91.5238	4.0075	8.150
7.520	94.66	91.5215	4.0074	8.162
7.528	94.74	91.5192	4.0073	8.174
7.537	94.83	91.5169	4.0072	8.187
7.545	94.91	91.5146	4.0071	8.198
7.553	95.00	91.5123	4.0070	8.210
7.562	95.09	91.5100	4.0069	8.222
7.570	95.17	91.5077	4.0068	8.235
7.578	95.26	91.5055	4.0067	8.247
7.587	95.34	91.5032	4.0066	8.259
7.595	95.43	91.5010	4.0065	8.271
7.603	95.52	91.4988	4.0064	8.284
7.612	95.60	91.4965	4.0063	8.297
7.620	95.69	91.4944	4.0062	8.310
7.628	95.78	91.4922	4.0061	8.323
7.637	95.86	91.4900	4.0060	8.334
7.645	95.95	91.4878	4.0059	8.346
7.653	96.03	91.4856	4.0058	8.358
7.662	96.12	91.4835	4.0058	8.370
7.670	96.21	91.4813	4.0057	8.382
7.678	96.29	91.4792	4.0056	8.393
7.687	96.38	91.4770	4.0055	8.404
7.695	96.46	91.4749	4.0054	8.415
7.703	96.55	91.4728	4.0053	8.426
7.712	96.64	91.4706	4.0052	8.436
7.720	96.72	91.4685	4.0051	8.447
7.728	96.81	91.4664	4.0050	8.457
7.737	96.89	91.4643	4.0049	8.467
7.745	96.98	91.4623	4.0048	8.477
7.753	97.06	91.4602	4.0047	8.488
7.762	97.15	91.4582	4.0046	8.499
7.770	97.24	91.4561	4.0046	8.510
7.778	97.32	91.4541	4.0045	8.520
7.787	97.41	91.4521	4.0044	8.531
7.795	97.49	91.4501	4.0043	8.543
7.803	97.58	91.4480	4.0042	8.554
7.812	97.67	91.4460	4.0041	8.566
7.820	97.75	91.4440	4.0040	8.577
7.828	97.84	91.4420	4.0039	8.588
7.837	97.92	91.4400	4.0038	8.598
7.845	98.01	91.4380	4.0038	8.608
7.853	98.10	91.4360	4.0037	8.618
7.862	98.18	91.4340	4.0036	8.627
7.870	98.27	91.4321	4.0035	8.637
7.878	98.35	91.4301	4.0034	8.647
7.887	98.44	91.4282	4.0033	8.656
7.895	98.52	91.4263	4.0032	8.665
7.903	98.61	91.4244	4.0032	8.673
7.912	98.70	91.4225	4.0031	8.682
7.920	98.78	91.4206	4.0030	8.689
7.928	98.87	91.4187	4.0029	8.697
7.937	98.95	91.4169	4.0028	8.706
7.945	99.04	91.4150	4.0028	8.715
7.953	99.12	91.4132	4.0027	8.723
7.962	99.21	91.4113	4.0026	8.732
7.970	99.30	91.4095	4.0025	8.740
7.978	99.38	91.4076	4.0024	8.749
7.987	99.47	91.4058	4.0024	8.759
7.995	99.55	91.4040	4.0023	8.768
8.003	99.64	91.4022	4.0022	8.778
8.012	99.72	91.4004	4.0021	8.787
8.020	99.81	91.3986	4.0020	8.795
8.028	99.90	91.3969	4.0020	8.804
8.037	99.98	91.3951	4.0019	8.812
8.045	100.07	91.3934	4.0018	8.821
8.053	100.15	91.3917	4.0017	8.830
8.062	100.24	91.3900	4.0017	8.839
8.070	100.33	91.3884	4.0016	8.847
8.078	100.41	91.3867	4.0015	8.856
8.087	100.50	91.3850	4.0014	8.864
8.095	100.58	91.3834	4.0014	8.872
8.103	100.67	91.3817	4.0013	8.879
8.112	100.76	91.3801	4.0012	8.886
8.120	100.84	91.3785	4.0012	8.894
8.128	100.93	91.3768	4.0011	8.901
8.137	101.01	91.3752	4.0010	8.908
8.145	101.10	91.3736	4.0009	8.914
8.153	101.18	91.3720	4.0009	8.920
8.162	101.27	91.3704	4.0008	8.927
8.170	101.35	91.3687	4.0007	8.934
8.178	101.44	91.3672	4.0007	8.940
8.187	101.53	91.3656	4.0006	8.947
8.195	101.61	91.3640	4.0005	8.954
8.203	101.70	91.3625	4.0005	8.961
8.212	101.78	91.3609	4.0004	8.969
8.220	101.87	91.3594	4.0003	8.976
8.228	101.95	91.3578	4.0003	8.984
8.237	102.04	91.3563	4.0002	8.990
8.245	102.12	91.3548	4.0001	8.996
8.253	102.21	91.3532	4.0001	9.002
8.262	102.30	91.3517	4.0000	9.008
8.270	102.38	91.3502	3.9999	9.014
8.278	102.47	91.3487	3.9999	9.020
8.287	102.55	91.3471	3.9998	9.025
8.295	102.64	91.3456	3.9997	9.029
8.303	102.72	91.3441	3.9997	9.034
8.312	102.81	91.3426	3.9996	9.039
8.320	102.90	91.3411	3.9995	9.045
8.328	102.98	91.3396	3.9995	9.050
8.337	103.07	91.3381	3.9994	9.056
8.345	103.15	91.3366	3.9993	9.062
8.353	103.24	91.3351	3.9993	9.068
8.362	103.32	91.3336	3.9992	9.074
8.370	103.41	91.3322	3.9991	9.080
8.378	103.50	91.3307	3.9991	9.086
8.387	103.58	91.3292	3.9990	9.092
8.395	103.67	91.3278	3.9989	9.098
8.403	103.75	91.3263	3.9989	9.104
8.412	103.84	91.3249	3.9988	9.109
8.420	103.92	91.3235	3.9987	9.115
8.428	104.01	91.3221	3.9987	9.120
8.437	104.09	91.3207	3.9986	9.125
8.445	104.18	91.3194	3.9986	9.129
8.453	104.27	91.3180	3.9985	9.134
8.462	104.35	91.3166	3.9984	9.139
8.470	104.44	91.3153	3.9984	9.145
8.478	104.52	91.3139	3.9983	9.149
8.487	104.61	91.3126	3.9983	9.154
8.495	104.70	91.3112	3.9982	9.159
8.503	104.78	91.3099	3.9982	9.165
8.512	104.87	91.3085	3.9981	9.170
8.520	104.95	91.3072	3.9980	9.176
8.528	105.04	91.3059	3.9980	9.181
8.537	105.12	91.3045	3.9979	9.185
8.545	105.21	91.3032	3.9979	9.190
8.553	105.29	91.3019	3.9978	9.195
8.562	105.38	91.3006	3.9977	9.200
8.570	105.47	91.2993	3.9977	9.205
8.578	105.55	91.2980	3.9976	9.209
8.587	105.64	91.2967	3.9976	9.213
8.595	105.72	91.2954	3.9975	9.217
8.603	105.81	91.2942	3.9975	9.222
8.612	105.89	91.2929	3.9974	9.226
8.620	105.98	91.2917	3.9974	9.231
8.628	106.07	91.2904	3.9973	9.235
8.637	106.15	91.2892	3.9972	9.239
8.645	106.24	91.2880	3.9972	9.243
8.653	106.32	91.2868	3.9971	9.247
8.662	106.41	91.2856	3.9971	9.251
8.670	106.49	91.2843	3.9970	9.254

[step]
Isothermal 30.0 min
Time	Temperature	Weight	Weight	Heat Flow
min	°C	%	mg	mW
8.678	106.58	91.2831	3.9970	9.257
8.703	106.84	91.2795	3.9968	9.265
8.728	107.09	91.2759	3.9967	9.273
8.753	107.35	91.2724	3.9965	9.282
8.778	107.60	91.2690	3.9964	9.295
8.803	107.86	91.2657	3.9962	9.310
8.828	108.11	91.2624	3.9961	9.329
8.853	108.36	91.2592	3.9959	9.350
8.878	108.60	91.2561	3.9958	9.374
8.903	108.84	91.2530	3.9957	9.404
8.928	109.08	91.2499	3.9955	9.438
8.953	109.31	91.2467	3.9954	9.478
8.978	109.54	91.2434	3.9952	9.517
9.003	109.76	91.2401	3.9951	9.560
9.028	109.98	91.2368	3.9950	9.607
9.053	110.19	91.2336	3.9948	9.658
9.078	110.40	91.2305	3.9947	9.712
9.103	110.60	91.2275	3.9945	9.768
9.128	110.80	91.2244	3.9944	9.828
9.153	110.98	91.2213	3.9943	9.889
9.178	111.17	91.2182	3.9941	9.957
9.203	111.34	91.2150	3.9940	10.025
9.228	111.51	91.2119	3.9939	10.098
9.253	111.68	91.2088	3.9937	10.170
9.278	111.83	91.2057	3.9936	10.244
9.303	111.98	91.2027	3.9935	10.320
9.328	112.12	91.1997	3.9933	10.395
9.353	112.26	91.1968	3.9932	10.470
9.378	112.39	91.1938	3.9931	10.545
9.403	112.51	91.1908	3.9929	10.624
9.428	112.63	91.1879	3.9928	10.705
9.453	112.73	91.1852	3.9927	10.785
9.478	112.83	91.1826	3.9926	10.864
9.503	112.93	91.1800	3.9925	10.944
9.528	113.01	91.1773	3.9923	11.025
9.553	113.09	91.1747	3.9922	11.104
9.578	113.16	91.1720	3.9921	11.182
9.603	113.22	91.1692	3.9920	11.259
9.628	113.28	91.1664	3.9919	11.338
9.653	113.33	91.1637	3.9918	11.414
9.678	113.37	91.1611	3.9916	11.486
9.703	113.41	91.1584	3.9915	11.555
9.728	113.45	91.1558	3.9914	11.623
9.753	113.47	91.1531	3.9913	11.688
9.778	113.50	91.1505	3.9912	11.748
9.803	113.51	91.1480	3.9911	11.807
9.828	113.53	91.1457	3.9910	11.862
9.853	113.53	91.1433	3.9909	11.915
9.878	113.54	91.1410	3.9908	11.964
9.903	113.53	91.1387	3.9907	12.010
9.928	113.53	91.1364	3.9906	12.056
9.953	113.52	91.1342	3.9905	12.098
9.978	113.50	91.1319	3.9904	12.137
10.003	113.49	91.1297	3.9903	12.171
10.028	113.46	91.1275	3.9902	12.201
10.053	113.44	91.1253	3.9901	12.229
10.078	113.42	91.1232	3.9900	12.252
10.103	113.39	91.1210	3.9899	12.274
10.128	113.36	91.1190	3.9898	12.292
10.153	113.33	91.1171	3.9897	12.307
10.178	113.29	91.1152	3.9896	12.318
10.203	113.26	91.1134	3.9895	12.323
10.228	113.22	91.1117	3.9895	12.327
10.253	113.19	91.1101	3.9894	12.330
10.278	113.15	91.1085	3.9893	12.331
10.303	113.12	91.1070	3.9893	12.332
10.328	113.08	91.1054	3.9892	12.331
10.353	113.04	91.1039	3.9891	12.327
10.378	113.00	91.1025	3.9891	12.320
10.403	112.96	91.1012	3.9890	12.310
10.428	112.92	91.0998	3.9890	12.298
10.453	112.88	91.0986	3.9889	12.284
10.478	112.84	91.0974	3.9888	12.266
10.503	112.80	91.0963	3.9888	12.246
10.528	112.76	91.0952	3.9888	12.225
10.553	112.73	91.0942	3.9887	12.205
10.578	112.69	91.0932	3.9887	12.183
10.603	112.65	91.0922	3.9886	12.159
10.628	112.61	91.0912	3.9886	12.134
10.653	112.58	91.0902	3.9885	12.109
10.678	112.54	91.0893	3.9885	12.085
10.703	112.50	91.0884	3.9885	12.062
10.728	112.47	91.0874	3.9884	12.036
10.753	112.43	91.0865	3.9884	12.008
10.778	112.40	91.0857	3.9883	11.981
10.803	112.37	91.0848	3.9883	11.956
10.828	112.34	91.0840	3.9883	11.929
10.853	112.31	91.0832	3.9882	11.903
10.878	112.28	91.0824	3.9882	11.874
10.903	112.25	91.0817	3.9882	11.847
10.928	112.23	91.0810	3.9881	11.820
10.953	112.20	91.0803	3.9881	11.794
10.978	112.18	91.0797	3.9881	11.769
11.003	112.15	91.0790	3.9880	11.744
11.028	112.13	91.0784	3.9880	11.717
11.053	112.11	91.0778	3.9880	11.692
11.078	112.09	91.0772	3.9880	11.666
11.103	112.07	91.0765	3.9879	11.642
11.128	112.05	91.0760	3.9879	11.617
11.153	112.04	91.0755	3.9879	11.593
11.178	112.02	91.0751	3.9879	11.569
11.203	112.01	91.0746	3.9879	11.545
11.228	112.00	91.0741	3.9878	11.520
11.253	111.99	91.0736	3.9878	11.497
11.278	111.98	91.0732	3.9878	11.476
11.303	111.97	91.0727	3.9878	11.456
11.328	111.96	91.0723	3.9878	11.436
11.353	111.96	91.0719	3.9877	11.416
11.378	111.95	91.0715	3.9877	11.395
11.403	111.95	91.0710	3.9877	11.375
11.428	111.94	91.0704	3.9877	11.356
11.453	111.94	91.0700	3.9876	11.337
11.478	111.94	91.0695	3.9876	11.318
11.503	111.94	91.0691	3.9876	11.300
11.528	111.94	91.0687	3.9876	11.284
[...]
158.170	949.80	3.1521	0.1380	103.434
158.178	949.80	3.1521	0.1380	103.442
158.187	949.80	3.1520	0.1380	103.450
158.195	949.80	3.1519	0.1380	103.458
158.203	949.80	3.1519	0.1380	103.466
158.212	949.80	3.1518	0.1380	103.476
158.220	949.80	3.1517	0.1380	103.486
158.228	949.80	3.1517	0.1380	103.495
158.237	949.80	3.1516	0.1380	103.505
158.245	949.80	3.1516	0.1380	103.514
158.253	949.81	3.1515	0.1380	103.523
158.262	949.81	3.1515	0.1380	103.533
158.270	949.81	3.1514	0.1380	103.542
158.278	949.81	3.1513	0.1380	103.551
158.287	949.81	3.1513	0.1380	103.560
158.295	949.81	3.1512	0.1380	103.569
158.303	949.81	3.1512	0.1380	103.578
158.312	949.81	3.1511	0.1380	103.587
158.320	949.81	3.1511	0.1380	103.597
158.328	949.81	3.1510	0.1380	103.607
158.337	949.81	3.1510	0.1380	103.617
158.345	949.81	3.1509	0.1380	103.626
158.353	949.81	3.1509	0.1380	103.636
158.362	949.81	3.1508	0.1380	103.646
158.370	949.81	3.1508	0.1380	103.655
158.378	949.81	3.1507	0.1380	103.664
158.387	949.81	3.1506	0.1380	103.673
158.395	949.81	3.1506	0.1380	103.681
158.403	949.81	3.1505	0.1379	103.690
158.412	949.82	3.1504	0.1379	103.698
158.420	949.82	3.1504	0.1379	103.706
158.428	949.82	3.1503	0.1379	103.714
158.437	949.82	3.1502	0.1379	103.723
158.445	949.82	3.1501	0.1379	103.731
158.453	949.82	3.1501	0.1379	103.740
158.462	949.82	3.1500	0.1379	103.749
158.470	949.82	3.1499	0.1379	103.758
158.478	949.82	3.1499	0.1379	103.767
158.487	949.82	3.1498	0.1379	103.776
158.495	949.82	3.1498	0.1379	103.785
158.503	949.82	3.1497	0.1379	103.795
158.512	949.82	3.1497	0.1379	103.803
158.520	949.82	3.1496	0.1379	103.811
158.528	949.82	3.1496	0.1379	103.819
158.537	949.82	3.1495	0.1379	103.826
158.545	949.82	3.1495	0.1379	103.834
158.553	949.82	3.1495	0.1379	103.841
158.562	949.82	3.1494	0.1379	103.849
158.570	949.82	3.1494	0.1379	103.855
158.578	949.83	3.1494	0.1379	103.862
158.587	949.83	3.1494	0.1379	103.869
158.595	949.83	3.1494	0.1379	103.876
158.603	949.83	3.1494	0.1379	103.884
158.612	949.83	3.1494	0.1379	103.892
158.620	949.83	3.1494	0.1379	103.900
158.628	949.83	3.1494	0.1379	103.908
158.637	949.83	3.1494	0.1379	103.916
158.645	949.83	3.1494	0.1379	103.924
158.653	949.83	3.1494	0.1379	103.933
158.662	949.83	3.1494	0.1379	103.941
158.670	949.83	3.1493	0.1379	103.948
158.678	949.83	3.1493	0.1379	103.955
158.687	949.83	3.1493	0.1379	103.962
158.695	949.83	3.1493	0.1379	103.969
158.703	949.83	3.1493	0.1379	103.976
158.712	949.83	3.1492	0.1379	103.982
158.720	949.83	3.1492	0.1379	103.988
158.728	949.83	3.1492	0.1379	103.995
158.737	949.83	3.1492	0.1379	104.003
158.745	949.83	3.1492	0.1379	104.011
158.753	949.83	3.1491	0.1379	104.019
158.762	949.83	3.1491	0.1379	104.028
158.770	949.84	3.1491	0.1379	104.037
158.778	949.84	3.1491	0.1379	104.046
158.787	949.84	3.1491	0.1379	104.054
158.795	949.84	3.1491	0.1379	104.064
158.803	949.84	3.1490	0.1379	104.073
158.812	949.84	3.1490	0.1379	104.081
158.820	949.84	3.1490	0.1379	104.090
158.828	949.84	3.1490	0.1379	104.098
158.837	949.84	3.1489	0.1379	104.105
158.845	949.84	3.1489	0.1379	104.113
158.853	949.84	3.1489	0.1379	104.120
158.862	949.84	3.1488	0.1379	104.127
158.870	949.84	3.1488	0.1379	104.134
158.878	949.84	3.1487	0.1379	104.141
158.887	949.84	3.1486	0.1379	104.147
158.895	949.84	3.1486	0.1379	104.153
158.903	949.84	3.1485	0.1379	104.159
158.912	949.84	3.1485	0.1379	104.165
158.920	949.84	3.1484	0.1379	104.171
158.928	949.84	3.1484	0.1379	104.178
158.937	949.84	3.1484	0.1379	104.184
158.945	949.84	3.1483	0.1379	104.189
158.953	949.84	3.1483	0.1379	104.196
158.962	949.85	3.1482	0.1379	104.202
158.970	949.85	3.1482	0.1378	104.210
158.978	949.85	3.1482	0.1378	104.217
158.987	949.85	3.1481	0.1378	104.224
158.995	949.85	3.1481	0.1378	104.231
159.003	949.85	3.1480	0.1378	104.236
159.012	949.85	3.1480	0.1378	104.242
159.020	949.85	3.1479	0.1378	104.249
159.028	949.85	3.1479	0.1378	104.255
159.037	949.85	3.1478	0.1378	104.261
159.045	949.85	3.1478	0.1378	104.267
159.053	949.85	3.1477	0.1378	104.273
159.062	949.85	3.1477	0.1378	104.280
159.070	949.85	3.1476	0.1378	104.286
159.078	949.85	3.1475	0.1378	104.294
159.087	949.85	3.1475	0.1378	104.301
159.095	949.85	3.1474	0.1378	104.309
159.103	949.85	3.1473	0.1378	104.318
159.112	949.85	3.1472	0.1378	104.327
159.120	949.85	3.1471	0.1378	104.337
159.128	949.85	3.1471	0.1378	104.346
159.137	949.85	3.1470	0.1378	104.354
159.145	949.85	3.1469	0.1378	104.363
159.153	949.85	3.1468	0.1378	104.371
159.162	949.85	3.1467	0.1378	104.380
159.170	949.85	3.1466	0.1378	104.389
159.178	949.86	3.1465	0.1378	104.397
159.187	949.86	3.1464	0.1378	104.404
159.195	949.86	3.1464	0.1378	104.411
159.203	949.86	3.1463	0.1378	104.418
159.212	949.86	3.1462	0.1378	104.425
159.220	949.86	3.1461	0.1378	104.432
159.228	949.86	3.1461	0.1378	104.439
159.237	949.86	3.1460	0.1378	104.446
159.245	949.86	3.1459	0.1378	104.452
159.253	949.86	3.1459	0.1377	104.457
159.262	949.86	3.1458	0.1377	104.463
159.270	949.86	3.1458	0.1377	104.468
159.278	949.86	3.1457	0.1377	104.473
159.287	949.86	3.1457	0.1377	104.478
159.295	949.86	3.1457	0.1377	104.483
159.303	949.86	3.1456	0.1377	104.487
159.312	949.86	3.1456	0.1377	104.491
159.320	949.86	3.1455	0.1377	104.495
159.328	949.86	3.1455	0.1377	104.499
159.337	949.86	3.1454	0.1377	104.503
159.345	949.86	3.1454	0.1377	104.507
159.353	949.86	3.1453	0.1377	104.511
159.362	949.86	3.1453	0.1377	104.516
159.370	949.86	3.1452	0.1377	104.522
159.378	949.86	3.1452	0.1377	104.529
159.387	949.86	3.1451	0.1377	104.536
159.395	949.86	3.1451	0.1377	104.543
159.403	949.86	3.1450	0.1377	104.550
159.412	949.87	3.1450	0.1377	104.557
159.420	949.87	3.1450	0.1377	104.565
159.428	949.87	3.1450	0.1377	104.574
159.437	949.87	3.1449	0.1377	104.583
159.445	949.87	3.1449	0.1377	104.591
159.453	949.87	3.1448	0.1377	104.597
159.462	949.87	3.1448	0.1377	104.603
159.470	949.87	3.1448	0.1377	104.609
159.478	949.87	3.1448	0.1377	104.616
159.487	949.87	3.1447	0.1377	104.622
159.495	949.87	3.1447	0.1377	104.628
159.503	949.87	3.1446	0.1377	104.633
159.512	949.87	3.1446	0.1377	104.638
159.520	949.87	3.1445	0.1377	104.643
159.528	949.87	3.1445	0.1377	104.648
159.537	949.87	3.1445	0.1377	104.653
159.545	949.87	3.1444	0.1377	104.658
159.553	949.87	3.1444	0.1377	104.662
159.562	949.87	3.1443	0.1377	104.667
159.570	949.87	3.1443	0.1377	104.672
159.578	949.87	3.1442	0.1377	104.677
159.587	949.87	3.1441	0.1377	104.682
159.595	949.87	3.1441	0.1377	104.688
159.603	949.87	3.1440	0.1377	104.694
159.612	949.87	3.1440	0.1377	104.700
159.620	949.87	3.1439	0.1377	104.706
159.628	949.87	3.1438	0.1377	104.712
159.637	949.87	3.1438	0.1377	104.718
159.645	949.87	3.1438	0.1377	104.724
159.653	949.87	3.1437	0.1377	104.730
159.662	949.87	3.1437	0.1377	104.736
159.670	949.88	3.1436	0.1376	104.742
159.678	949.88	3.1436	0.1376	104.748
159.687	949.88	3.1435	0.1376	104.754
159.695	949.88	3.1435	0.1376	104.760
159.703	949.88	3.1434	0.1376	104.765
159.712	949.88	3.1434	0.1376	104.770
159.720	949.88	3.1433	0.1376	104.775
159.728	949.88	3.1432	0.1376	104.782
159.737	949.88	3.1432	0.1376	104.788
159.745	949.88	3.1431	0.1376	104.795
159.753	949.88	3.1430	0.1376	104.801
159.762	949.88	3.1429	0.1376	104.807
159.770	949.88	3.1428	0.1376	104.814
159.778	949.88	3.1428	0.1376	104.820
159.787	949.88	3.1427	0.1376	104.826
159.795	949.88	3.1426	0.1376	104.832
159.803	949.88	3.1426	0.1376	104.837
159.812	949.88	3.1425	0.1376	104.842
159.820	949.88	3.1424	0.1376	104.846
159.828	949.88	3.1424	0.1376	104.849
159.837	949.88	3.1423	0.1376	104.853
159.845	949.88	3.1423	0.1376	104.858
159.853	949.88	3.1422	0.1376	104.862
159.862	949.88	3.1422	0.1376	104.868
159.870	949.88	3.1421	0.1376	104.873
159.878	949.88	3.1421	0.1376	104.879
159.887	949.88	3.1420	0.1376	104.885
159.895	949.88	3.1420	0.1376	104.891
159.903	949.88	3.1419	0.1376	104.897
159.912	949.88	3.1419	0.1376	104.904
159.920	949.88	3.1418	0.1376	104.910
159.928	949.89	3.1418	0.1376	104.916
159.937	949.89	3.1417	0.1376	104.921
159.945	949.89	3.1417	0.1376	104.926
159.953	949.89	3.1416	0.1376	104.932
159.962	949.89	3.1416	0.1376	104.937
159.970	949.89	3.1416	0.1376	104.943
159.978	949.89	3.1415	0.1376	104.948
159.987	949.89	3.1414	0.1376	104.953
159.995	949.89	3.1414	0.1375	104.958
160.003	949.89	3.1413	0.1375	104.963
160.012	949.89	3.1412	0.1375	104.968
160.020	949.89	3.1412	0.1375	104.973
160.028	949.89	3.1411	0.1375	104.978
160.037	949.89	3.1411	0.1375	104.983
160.045	949.89	3.1410	0.1375	104.987
160.053	949.89	3.1409	0.1375	104.992
160.062	949.89	3.1409	0.1375	104.996
160.070	949.89	3.1408	0.1375	105.001
160.078	949.89	3.1408	0.1375	105.005
160.087	949.89	3.1407	0.1375	105.010
160.095	949.89	3.1406	0.1375	105.015
160.103	949.89	3.1406	0.1375	105.019
160.112	949.89	3.1405	0.1375	105.024
160.120	949.89	3.1405	0.1375	105.028
160.128	949.89	3.1404	0.1375	105.031
160.137	949.89	3.1404	0.1375	105.035
160.145	949.89	3.1403	0.1375	105.038
160.153	949.89	3.1403	0.1375	105.041
160.162	949.89	3.1402	0.1375	105.044
160.170	949.89	3.1402	0.1375	105.046
160.178	949.89	3.1401	0.1375	105.049
160.187	949.89	3.1401	0.1375	105.053
160.195	949.89	3.1400	0.1375	105.056
160.203	949.89	3.1399	0.1375	105.060
160.212	949.89	3.1398	0.1375	105.064
160.220	949.90	3.1397	0.1375	105.068
160.228	949.90	3.1397	0.1375	105.071
160.237	949.90	3.1396	0.1375	105.076
160.245	949.90	3.1395	0.1375	105.080
160.253	949.90	3.1393	0.1375	105.085
160.262	949.90	3.1390	0.1374	105.089
160.270	949.90	3.1386	0.1374	105.093
160.278	949.90	3.1382	0.1374	105.097
160.287	949.90	3.1376	0.1374	105.102
160.295	949.90	3.1370	0.1374	105.106
160.303	949.90	3.1364	0.1373	105.111
160.312	949.90	3.1356	0.1373	105.115
160.320	949.90	3.1348	0.1373	105.120
160.328	949.90	3.1340	0.1372	105.124
160.337	949.90	3.1332	0.1372	105.129
160.345	949.90	3.1324	0.1372	105.134
160.353	949.90	3.1317	0.1371	105.139
160.362	949.90	3.1310	0.1371	105.144
160.370	949.90	3.1303	0.1371	105.149
160.378	949.90	3.1297	0.1370	105.154
160.387	949.90	3.1290	0.1370	105.160
160.395	949.90	3.1285	0.1370	105.166
160.403	949.90	3.1279	0.1370	105.171
160.412	949.90	3.1274	0.1369	105.177
160.420	949.90	3.1269	0.1369	105.182
160.428	949.90	3.1264	0.1369	105.187
160.437	949.90	3.1260	0.1369	105.192
160.445	949.90	3.1257	0.1369	105.196
160.453	949.90	3.1253	0.1368	105.201
160.462	949.90	3.1250	0.1368	105.205
160.470	949.90	3.1248	0.1368	105.208
160.478	949.90	3.1245	0.1368	105.212
160.487	949.90	3.1243	0.1368	105.215
160.495	949.90	3.1241	0.1368	105.218
160.503	949.90	3.1239	0.1368	105.221
160.512	949.90	3.1237	0.1368	105.224
160.520	949.90	3.1236	0.1368	105.226
160.528	949.90	3.1234	0.1368	105.229
160.537	949.90	3.1233	0.1368	105.232
160.545	949.90	3.1231	0.1368	105.234
160.553	949.90	3.1230	0.1367	105.237
160.562	949.90	3.1229	0.1367	105.240
160.570	949.90	3.1228	0.1367	105.242
160.578	949.90	3.1228	0.1367	105.245
160.587	949.90	3.1227	0.1367	105.249
160.595	949.91	3.1226	0.1367	105.254
160.603	949.91	3.1226	0.1367	105.258
160.612	949.91	3.1226	0.1367	105.263
160.620	949.91	3.1226	0.1367	105.268
160.628	949.91	3.1226	0.1367	105.272
160.637	949.91	3.1226	0.1367	105.277
160.645	949.91	3.1226	0.1367	105.281
160.653	949.91	3.1226	0.1367	105.286
160.662	949.91	3.1226	0.1367	105.290
160.670	949.91	3.1226	0.1367	105.294
160.678	949.91	3.1226	0.1367	105.297
160.687	949.91	3.1226	0.1367	105.299
160.695	949.91	3.1226	0.1367	105.303
160.703	949.91	3.1227	0.1367	105.306
160.712	949.91	3.1227	0.1367	105.309
160.720	949.91	3.1227	0.1367	105.312
160.728	949.91	3.1228	0.1367	105.315
160.737	949.91	3.1228	0.1367	105.318
160.745	949.91	3.1228	0.1367	105.321
160.753	949.91	3.1229	0.1367	105.324
160.762	949.91	3.1229	0.1367	105.326
160.770	949.91	3.1230	0.1367	105.329
160.778	949.91	3.1230	0.1367	105.332
160.787	949.91	3.1231	0.1367	105.334
160.795	949.91	3.1231	0.1368	105.337
160.803	949.91	3.1231	0.1368	105.340
160.812	949.91	3.1232	0.1368	105.344
160.820	949.91	3.1232	0.1368	105.347
160.828	949.91	3.1233	0.1368	105.351
160.837	949.91	3.1233	0.1368	105.355
160.845	949.91	3.1233	0.1368	105.359
160.853	949.91	3.1234	0.1368	105.363
160.862	949.91	3.1234	0.1368	105.367
160.870	949.91	3.1235	0.1368	105.371
160.878	949.91	3.1235	0.1368	105.374
160.887	949.91	3.1236	0.1368	105.378
160.895	949.91	3.1237	0.1368	105.382
160.903	949.91	3.1237	0.1368	105.385
160.912	949.91	3.1238	0.1368	105.389
160.920	949.91	3.1239	0.1368	105.391
160.928	949.91	3.1240	0.1368	105.394
160.937	949.91	3.1241	0.1368	105.397
160.945	949.91	3.1241	0.1368	105.399
160.953	949.91	3.1242	0.1368	105.402
160.962	949.91	3.1243	0.1368	105.405
160.970	949.91	3.1244	0.1368	105.408
160.978	949.91	3.1244	0.1368	105.410
160.987	949.91	3.1245	0.1368	105.413
160.995	949.91	3.1246	0.1368	105.415
161.003	949.91	3.1247	0.1368	105.418
161.012	949.91	3.1248	0.1368	105.420
161.020	949.91	3.1248	0.1368	105.423
161.028	949.91	3.1249	0.1368	105.425
161.037	949.92	3.1250	0.1368	105.428
161.045	949.92	3.1251	0.1368	105.431
161.053	949.92	3.1251	0.1368	105.434
161.062	949.92	3.1252	0.1368	105.437
161.070	949.92	3.1253	0.1368	105.441
161.078	949.92	3.1254	0.1368	105.445
161.087	949.92	3.1254	0.1369	105.449
161.095	949.92	3.1255	0.1369	105.453
161.103	949.92	3.1256	0.1369	105.458
161.112	949.92	3.1257	0.1369	105.463
161.120	949.92	3.1257	0.1369	105.468
161.128	949.92	3.1258	0.1369	105.473
161.137	949.92	3.1259	0.1369	105.477
161.145	949.92	3.1259	0.1369	105.482
161.153	949.92	3.1260	0.1369	105.486
161.162	949.92	3.1260	0.1369	105.491
161.170	949.92	3.1261	0.1369	105.495
161.178	949.92	3.1262	0.1369	105.499
161.187	949.92	3.1262	0.1369	105.503
161.195	949.92	3.1263	0.1369	105.507
161.203	949.92	3.1263	0.1369	105.511
161.212	949.92	3.1264	0.1369	105.514
161.220	949.92	3.1265	0.1369	105.517
161.228	949.92	3.1265	0.1369	105.520
161.237	949.92	3.1266	0.1369	105.523
161.245	949.92	3.1266	0.1369	105.527
161.253	949.92	3.1266	0.1369	105.531
161.262	949.92	3.1267	0.1369	105.535
161.270	949.92	3.1267	0.1369	105.539
161.278	949.92	3.1267	0.1369	105.543
161.287	949.92	3.1267	0.1369	105.548
161.295	949.92	3.1268	0.1369	105.553
161.303	949.92	3.1268	0.1369	105.559
161.312	949.92	3.1268	0.1369	105.564
161.320	949.92	3.1269	0.1369	105.569
161.328	949.92	3.1269	0.1369	105.574
161.337	949.92	3.1269	0.1369	105.578
161.345	949.92	3.1269	0.1369	105.584
161.353	949.92	3.1270	0.1369	105.588
161.362	949.92	3.1270	0.1369	105.593
161.370	949.92	3.1270	0.1369	105.597
161.378	949.92	3.1270	0.1369	105.601
161.387	949.92	3.1271	0.1369	105.605
161.395	949.92	3.1271	0.1369	105.609
161.403	949.92	3.1271	0.1369	105.614
161.412	949.92	3.1272	0.1369	105.618
161.420	949.92	3.1272	0.1369	105.622
161.428	949.92	3.1272	0.1369	105.625
161.437	949.92	3.1272	0.1369	105.629
161.445	949.92	3.1273	0.1369	105.633
161.453	949.92	3.1273	0.1369	105.636
161.462	949.92	3.1273	0.1369	105.640
161.470	949.92	3.1273	0.1369	105.643
161.478	949.92	3.1273	0.1369	105.647
161.487	949.92	3.1273	0.1369	105.650
161.495	949.92	3.1272	0.1369	105.653
161.503	949.92	3.1272	0.1369	105.656
161.512	949.92	3.1272	0.1369	105.660
161.520	949.92	3.1272	0.1369	105.663
161.528	949.92	3.1272	0.1369	105.667
161.537	949.92	3.1271	0.1369	105.670
161.545	949.92	3.1271	0.1369	105.674
161.553	949.92	3.1271	0.1369	105.677
161.562	949.92	3.1271	0.1369	105.681
161.570	949.92	3.1271	0.1369	105.685
161.578	949.92	3.1271	0.1369	105.689
161.587	949.92	3.1271	0.1369	105.692
161.595	949.92	3.1270	0.1369	105.696
161.603	949.93	3.1270	0.1369	105.699
161.612	949.93	3.1270	0.1369	105.702
161.620	949.93	3.1270	0.1369	105.705
161.628	949.93	3.1269	0.1369	105.709
161.637	949.93	3.1269	0.1369	105.711
161.645	949.93	3.1269	0.1369	105.714
161.653	949.93	3.1269	0.1369	105.716
161.662	949.93	3.1269	0.1369	105.719
161.670	949.93	3.1269	0.1369	105.721
161.678	949.93	3.1268	0.1369	105.723
161.687	949.93	3.1268	0.1369	105.726
161.695	949.93	3.1268	0.1369	105.728
161.703	949.93	3.1268	0.1369	105.731
161.712	949.93	3.1268	0.1369	105.734
161.720	949.93	3.1268	0.1369	105.736
161.728	949.93	3.1268	0.1369	105.739
161.737	949.93	3.1267	0.1369	105.742
161.745	949.93	3.1267	0.1369	105.745
161.753	949.93	3.1267	0.1369	105.748
161.762	949.93	3.1266	0.1369	105.751
161.770	949.93	3.1266	0.1369	105.754
161.778	949.93	3.1265	0.1369	105.758
161.787	949.93	3.1265	0.1369	105.762
161.795	949.93	3.1265	0.1369	105.765
161.803	949.93	3.1264	0.1369	105.769
161.812	949.93	3.1264	0.1369	105.773
161.820	949.93	3.1264	0.1369	105.776
161.828	949.93	3.1263	0.1369	105.780
161.837	949.93	3.1263	0.1369	105.784
161.845	949.93	3.1262	0.1369	105.789
161.853	949.93	3.1262	0.1369	105.793
161.862	949.93	3.1261	0.1369	105.796
161.870	949.93	3.1261	0.1369	105.800
161.878	949.93	3.1260	0.1369	105.804
161.887	949.93	3.1259	0.1369	105.807
161.895	949.93	3.1259	0.1369	105.811
161.903	949.93	3.1258	0.1369	105.814
161.912	949.93	3.1258	0.1369	105.817
161.920	949.93	3.1257	0.1369	105.820
161.928	949.93	3.1257	0.1369	105.822
161.937	949.93	3.1256	0.1369	105.825
161.945	949.93	3.1256	0.1369	105.827
161.953	949.93	3.1255	0.1369	105.829
161.962	949.93	3.1255	0.1369	105.831
161.970	949.93	3.1254	0.1369	105.833
161.978	949.93	3.1254	0.1369	105.835
161.987	949.93	3.1254	0.1368	105.838
161.995	949.93	3.1253	0.1368	105.840
162.003	949.93	3.1253	0.1368	105.843
162.012	949.93	3.1253	0.1368	105.846
162.020	949.93	3.1252	0.1368	105.850
162.028	949.93	3.1252	0.1368	105.853
162.037	949.93	3.1251	0.1368	105.857
162.045	949.93	3.1251	0.1368	105.860
162.053	949.93	3.1251	0.1368	105.864
162.062	949.93	3.1250	0.1368	105.867
162.070	949.93	3.1250	0.1368	105.871
162.078	949.93	3.1249	0.1368	105.874
162.087	949.93	3.1249	0.1368	105.878
162.095	949.93	3.1248	0.1368	105.880
162.103	949.93	3.1248	0.1368	105.883
162.112	949.93	3.1247	0.1368	105.886
162.120	949.93	3.1247	0.1368	105.888
162.128	949.93	3.1246	0.1368	105.891
162.137	949.93	3.1246	0.1368	105.894
162.145	949.93	3.1245	0.1368	105.897
162.153	949.93	3.1244	0.1368	105.900
162.162	949.94	3.1243	0.1368	105.903
162.170	949.94	3.1243	0.1368	105.906
162.178	949.94	3.1242	0.1368	105.909
162.187	949.94	3.1241	0.1368	105.912
162.195	949.94	3.1241	0.1368	105.915
162.203	949.94	3.1240	0.1368	105.918
162.212	949.94	3.1239	0.1368	105.921
162.220	949.94	3.1239	0.1368	105.924
162.228	949.94	3.1238	0.1368	105.927
162.237	949.94	3.1237	0.1368	105.929
162.245	949.94	3.1237	0.1368	105.932
162.253	949.94	3.1236	0.1368	105.935
162.262	949.94	3.1235	0.1368	105.937
162.270	949.94	3.1235	0.1368	105.940
162.278	949.94	3.1234	0.1368	105.942
162.287	949.94	3.1233	0.1368	105.945
162.295	949.94	3.1232	0.1368	105.948
162.303	949.94	3.1231	0.1368	105.951
162.312	949.94	3.1230	0.1367	105.955
162.320	949.94	3.1230	0.1367	105.958
162.328	949.94	3.1229	0.1367	105.961
162.337	949.94	3.1228	0.1367	105.965
162.345	949.94	3.1227	0.1367	105.968
162.353	949.94	3.1227	0.1367	105.972
162.362	949.94	3.1226	0.1367	105.976
162.370	949.94	3.1225	0.1367	105.979
162.378	949.94	3.1225	0.1367	105.982
162.387	949.94	3.1224	0.1367	105.986
162.395	949.94	3.1224	0.1367	105.990
162.403	949.94	3.1223	0.1367	105.993
162.412	949.94	3.1223	0.1367	105.997
162.420	949.94	3.1222	0.1367	106.001
162.428	949.94	3.1222	0.1367	106.004
162.437	949.94	3.1221	0.1367	106.008
162.445	949.94	3.1221	0.1367	106.012
162.453	949.94	3.1220	0.1367	106.016
162.462	949.94	3.1219	0.1367	106.019
162.470	949.94	3.1219	0.1367	106.023
162.478	949.94	3.1219	0.1367	106.026
162.487	949.94	3.1218	0.1367	106.029
162.495	949.94	3.1218	0.1367	106.032
162.503	949.94	3.1217	0.1367	106.035
162.512	949.94	3.1217	0.1367	106.038
162.520	949.94	3.1216	0.1367	106.041
162.528	949.94	3.1215	0.1367	106.044
162.537	949.94	3.1215	0.1367	106.046
162.545	949.94	3.1214	0.1367	106.049
162.553	949.94	3.1213	0.1367	106.052
162.562	949.94	3.1212	0.1367	106.055
162.570	949.94	3.1211	0.1367	106.058
162.578	949.94	3.1211	0.1367	106.061
162.587	949.94	3.1210	0.1367	106.064
162.595	949.94	3.1209	0.1367	106.066
162.603	949.94	3.1209	0.1367	106.069
162.612	949.94	3.1208	0.1367	106.072
162.620	949.94	3.1208	0.1366	106.075
162.628	949.94	3.1208	0.1366	106.078
162.637	949.94	3.1207	0.1366	106.082
162.645		3.1207	0.1366
162.653		3.1207	0.1366
162.662		3.1206	0.1366
162.670		3.1206	0.1366
162.678		3.1206	0.1366