File: PSO Kinetics/data/WF115_2.txt
Filename	WF115_2
Instrument name	0650-0369 (192.168.1.2)
Operator	ca527
rundate	11/24/2022
Sample name	WF115_2
proceduresegments	Select Gas: Gas 1 ; Ramp 10.00 °C/min to 110.00 °C; Isothermal 30.0 min; Ramp 10.00 °C/min to 900.00 °C; Isothermal 30.0 min; Select Gas: Gas 2 ; Ramp 10.00 °C/min to 950.00 °C; Isothermal 10.0 min; Data Off ; Equilibrate 30.00 °C
[step]
Ramp 10.00 °C/min to 110.00 °C
Time	Temperature	Weight	Weight	Heat Flow
min	°C	%	mg	mW
0.003		100.0110	5.8893
0.012		100.0314	5.8905
0.020		100.0561	5.8920
0.028		100.0826	5.8935
0.037		100.1105	5.8952
0.045	22.21	100.1384	5.8968	-25.899
0.053	22.25	100.1647	5.8983	-25.876
0.062	22.29	100.1883	5.8997	-25.858
0.070	22.32	100.2092	5.9010	-25.843
0.078	22.36	100.2271	5.9020	-25.831
0.087	22.39	100.2407	5.9028	-25.819
0.095	22.43	100.2484	5.9033	-25.807
0.103	22.47	100.2523	5.9035	-25.795
0.112	22.50	100.2549	5.9037	-25.785
0.120	22.54	100.2569	5.9038	-25.776
0.128	22.57	100.2586	5.9039	-25.768
0.137	22.61	100.2601	5.9040	-25.760
0.145	22.64	100.2613	5.9040	-25.752
0.153	22.68	100.2624	5.9041	-25.744
0.162	22.72	100.2633	5.9042	-25.735
0.170	22.75	100.2640	5.9042	-25.726
0.178	22.79	100.2645	5.9042	-25.718
0.187	22.82	100.2648	5.9042	-25.709
0.195	22.86	100.2650	5.9043	-25.700
0.203	22.89	100.2650	5.9043	-25.691
0.212	22.93	100.2649	5.9042	-25.682
0.220	22.96	100.2645	5.9042	-25.674
0.228	22.99	100.2641	5.9042	-25.666
0.237	23.03	100.2635	5.9042	-25.659
0.245	23.06	100.2627	5.9041	-25.653
0.253	23.09	100.2618	5.9041	-25.646
0.262	23.13	100.2608	5.9040	-25.640
0.270	23.16	100.2596	5.9039	-25.635
0.278	23.20	100.2583	5.9039	-25.630
0.287	23.23	100.2569	5.9038	-25.625
0.295	23.26	100.2553	5.9037	-25.620
0.303	23.29	100.2535	5.9036	-25.616
0.312	23.33	100.2517	5.9035	-25.612
0.320	23.36	100.2496	5.9034	-25.608
0.328	23.39	100.2475	5.9032	-25.604
0.337	23.43	100.2452	5.9031	-25.600
0.345	23.46	100.2427	5.9029	-25.597
0.353	23.49	100.2402	5.9028	-25.594
0.362	23.52	100.2374	5.9026	-25.590
0.370	23.55	100.2346	5.9025	-25.586
0.378	23.59	100.2317	5.9023	-25.582
0.387	23.62	100.2286	5.9021	-25.578
0.395	23.65	100.2254	5.9019	-25.573
0.403	23.69	100.2222	5.9017	-25.567
0.412	23.72	100.2188	5.9015	-25.562
0.420	23.75	100.2152	5.9013	-25.556
0.428	23.78	100.2116	5.9011	-25.550
0.437	23.82	100.2079	5.9009	-25.544
0.445	23.85	100.2040	5.9007	-25.539
0.453	23.89	100.2001	5.9004	-25.534
0.462	23.92	100.1960	5.9002	-25.529
0.470	23.95	100.1918	5.8999	-25.525
0.478	23.99	100.1875	5.8997	-25.521
0.487	24.02	100.1830	5.8994	-25.519
0.495	24.05	100.1785	5.8992	-25.517
0.503	24.09	100.1738	5.8989	-25.514
0.512	24.12	100.1690	5.8986	-25.512
0.520	24.16	100.1641	5.8983	-25.510
0.528	24.20	100.1590	5.8980	-25.508
0.537	24.23	100.1539	5.8977	-25.507
0.545	24.27	100.1486	5.8974	-25.505
0.553	24.30	100.1432	5.8971	-25.504
0.562	24.34	100.1378	5.8968	-25.503
0.570	24.38	100.1322	5.8964	-25.502
0.578	24.42	100.1265	5.8961	-25.501
0.587	24.45	100.1208	5.8958	-25.501
0.595	24.49	100.1149	5.8954	-25.501
0.603	24.53	100.1090	5.8951	-25.501
0.612	24.57	100.1030	5.8947	-25.501
0.620	24.61	100.0969	5.8944	-25.501
0.628	24.65	100.0907	5.8940	-25.501
0.637	24.69	100.0845	5.8936	-25.502
0.645	24.73	100.0783	5.8933	-25.502
0.653	24.77	100.0720	5.8929	-25.503
0.662	24.81	100.0656	5.8925	-25.504
0.670	24.85	100.0592	5.8921	-25.505
0.678	24.89	100.0528	5.8918	-25.507
0.687	24.94	100.0463	5.8914	-25.508
0.695	24.98	100.0398	5.8910	-25.509
0.703	25.02	100.0333	5.8906	-25.511
0.712	25.07	100.0268	5.8902	-25.513
0.720	25.11	100.0202	5.8898	-25.514
0.728	25.15	100.0136	5.8895	-25.516
0.737	25.20	100.0071	5.8891	-25.518
0.745	25.24	100.0005	5.8887	-25.520
0.753	25.29	99.9939	5.8883	-25.522
0.762	25.34	99.9873	5.8879	-25.524
0.770	25.38	99.9808	5.8875	-25.527
0.778	25.43	99.9742	5.8871	-25.529
0.787	25.48	99.9676	5.8867	-25.532
0.795	25.52	99.9611	5.8864	-25.535
0.803	25.57	99.9545	5.8860	-25.538
0.812	25.62	99.9480	5.8856	-25.541
0.820	25.67	99.9415	5.8852	-25.544
0.828	25.72	99.9350	5.8848	-25.547
0.837	25.77	99.9285	5.8844	-25.550
0.845	25.82	99.9220	5.8841	-25.553
0.853	25.87	99.9156	5.8837	-25.555
0.862	25.92	99.9092	5.8833	-25.558
0.870	25.97	99.9028	5.8829	-25.560
0.878	26.02	99.8964	5.8826	-25.562
0.887	26.08	99.8901	5.8822	-25.564
0.895	26.13	99.8837	5.8818	-25.566
0.903	26.18	99.8774	5.8814	-25.567
0.912	26.24	99.8711	5.8811	-25.569
0.920	26.29	99.8649	5.8807	-25.570
0.928	26.34	99.8586	5.8803	-25.571
0.937	26.40	99.8524	5.8800	-25.572
0.945	26.45	99.8461	5.8796	-25.573
0.953	26.51	99.8399	5.8792	-25.573
0.962	26.57	99.8337	5.8789	-25.572
0.970	26.62	99.8275	5.8785	-25.570
0.978	26.68	99.8214	5.8781	-25.567
0.987	26.74	99.8152	5.8778	-25.562
0.995	26.80	99.8091	5.8774	-25.556
1.003	26.86	99.8030	5.8770	-25.549
1.012	26.92	99.7969	5.8767	-25.541
1.020	26.98	99.7908	5.8763	-25.531
1.028	27.04	99.7848	5.8760	-25.521
1.037	27.10	99.7787	5.8756	-25.509
1.045	27.16	99.7727	5.8753	-25.497
1.053	27.22	99.7667	5.8749	-25.484
1.062	27.28	99.7606	5.8746	-25.470
1.070	27.34	99.7546	5.8742	-25.455
1.078	27.41	99.7486	5.8738	-25.441
1.087	27.47	99.7426	5.8735	-25.426
1.095	27.53	99.7365	5.8731	-25.410
1.103	27.60	99.7305	5.8728	-25.393
1.112	27.66	99.7245	5.8724	-25.375
1.120	27.73	99.7184	5.8721	-25.358
1.128	27.79	99.7124	5.8717	-25.339
1.137	27.86	99.7063	5.8714	-25.320
1.145	27.93	99.7003	5.8710	-25.300
1.153	27.99	99.6942	5.8706	-25.279
1.162	28.06	99.6881	5.8703	-25.257
1.170	28.13	99.6820	5.8699	-25.235
1.178	28.20	99.6759	5.8696	-25.213
1.187	28.26	99.6698	5.8692	-25.190
1.195	28.33	99.6637	5.8688	-25.165
1.203	28.40	99.6575	5.8685	-25.140
1.212	28.47	99.6513	5.8681	-25.114
1.220	28.54	99.6452	5.8678	-25.088
1.228	28.61	99.6390	5.8674	-25.062
1.237	28.68	99.6328	5.8670	-25.037
1.245	28.75	99.6265	5.8667	-25.008
1.253	28.82	99.6203	5.8663	-24.979
1.262	28.90	99.6140	5.8659	-24.951
1.270	28.97	99.6077	5.8656	-24.921
1.278	29.04	99.6014	5.8652	-24.892
1.287	29.12	99.5951	5.8648	-24.861
1.295	29.19	99.5887	5.8644	-24.829
1.303	29.26	99.5823	5.8641	-24.797
1.312	29.34	99.5759	5.8637	-24.764
1.320	29.41	99.5695	5.8633	-24.731
1.328	29.49	99.5631	5.8629	-24.699
1.337	29.56	99.5566	5.8625	-24.668
1.345	29.64	99.5501	5.8622	-24.634
1.353	29.72	99.5436	5.8618	-24.600
1.362	29.79	99.5370	5.8614	-24.567
1.370	29.87	99.5305	5.8610	-24.533
1.378	29.94	99.5239	5.8606	-24.500
1.387	30.02	99.5173	5.8602	-24.465
1.395	30.10	99.5107	5.8598	-24.430
1.403	30.18	99.5041	5.8594	-24.394
1.412	30.25	99.4974	5.8591	-24.359
1.420	30.33	99.4907	5.8587	-24.321
1.428	30.41	99.4841	5.8583	-24.284
1.437	30.49	99.4773	5.8579	-24.246
1.445	30.57	99.4706	5.8575	-24.207
1.453	30.65	99.4638	5.8571	-24.169
1.462	30.73	99.4570	5.8567	-24.129
1.470	30.81	99.4501	5.8563	-24.089
1.478	30.89	99.4433	5.8559	-24.050
1.487	30.97	99.4364	5.8555	-24.011
1.495	31.05	99.4295	5.8551	-23.969
1.503	31.14	99.4225	5.8546	-23.929
1.512	31.22	99.4155	5.8542	-23.887
1.520	31.30	99.4085	5.8538	-23.845
1.528	31.38	99.4015	5.8534	-23.803
1.537	31.46	99.3944	5.8530	-23.760
1.545	31.55	99.3873	5.8526	-23.716
1.553	31.63	99.3802	5.8522	-23.672
1.562	31.71	99.3731	5.8517	-23.627
1.570	31.80	99.3660	5.8513	-23.582
1.578	31.88	99.3588	5.8509	-23.538
1.587	31.96	99.3516	5.8505	-23.493
1.595	32.05	99.3444	5.8500	-23.448
1.603	32.13	99.3371	5.8496	-23.402
1.612	32.22	99.3298	5.8492	-23.356
1.620	32.30	99.3225	5.8488	-23.310
1.628	32.39	99.3152	5.8483	-23.265
1.637	32.47	99.3079	5.8479	-23.219
1.645	32.56	99.3005	5.8475	-23.172
1.653	32.65	99.2931	5.8470	-23.125
1.662	32.73	99.2857	5.8466	-23.078
1.670	32.82	99.2782	5.8461	-23.029
1.678	32.90	99.2708	5.8457	-22.982
1.687	32.99	99.2633	5.8453	-22.934
1.695	33.08	99.2557	5.8448	-22.887
1.703	33.16	99.2482	5.8444	-22.839
1.712	33.25	99.2406	5.8439	-22.792
1.720	33.34	99.2330	5.8435	-22.744
1.728	33.43	99.2253	5.8430	-22.695
1.737	33.51	99.2176	5.8426	-22.647
1.745	33.60	99.2099	5.8421	-22.598
1.753	33.69	99.2022	5.8417	-22.549
1.762	33.78	99.1944	5.8412	-22.499
1.770	33.86	99.1866	5.8408	-22.449
1.778	33.95	99.1788	5.8403	-22.400
1.787	34.04	99.1710	5.8398	-22.349
1.795	34.13	99.1631	5.8394	-22.299
1.803	34.22	99.1553	5.8389	-22.248
1.812	34.31	99.1474	5.8384	-22.197
1.820	34.40	99.1395	5.8380	-22.145
1.828	34.49	99.1315	5.8375	-22.094
1.837	34.58	99.1235	5.8370	-22.043
1.845	34.67	99.1155	5.8366	-21.990
1.853	34.76	99.1075	5.8361	-21.936
1.862	34.85	99.0994	5.8356	-21.883
1.870	34.94	99.0913	5.8351	-21.830
1.878	35.03	99.0832	5.8347	-21.777
1.887	35.12	99.0751	5.8342	-21.723
1.895	35.21	99.0669	5.8337	-21.670
1.903	35.30	99.0587	5.8332	-21.616
1.912	35.39	99.0506	5.8327	-21.561
1.920	35.48	99.0423	5.8323	-21.508
1.928	35.57	99.0341	5.8318	-21.454
1.937	35.66	99.0258	5.8313	-21.400
1.945	35.75	99.0175	5.8308	-21.345
1.953	35.84	99.0091	5.8303	-21.291
1.962	35.93	99.0008	5.8298	-21.237
1.970	36.03	98.9924	5.8293	-21.182
1.978	36.12	98.9840	5.8288	-21.128
1.987	36.21	98.9755	5.8283	-21.073
1.995	36.30	98.9671	5.8278	-21.018
2.003	36.39	98.9586	5.8273	-20.963
2.012	36.48	98.9501	5.8268	-20.908
2.020	36.57	98.9416	5.8263	-20.853
2.028	36.67	98.9331	5.8258	-20.798
2.037	36.76	98.9245	5.8253	-20.743
2.045	36.85	98.9159	5.8248	-20.687
2.053	36.94	98.9073	5.8243	-20.633
2.062	37.03	98.8987	5.8238	-20.577
2.070	37.13	98.8901	5.8233	-20.521
2.078	37.22	98.8814	5.8228	-20.464
2.087	37.31	98.8727	5.8223	-20.408
2.095	37.40	98.8640	5.8218	-20.352
2.103	37.50	98.8552	5.8212	-20.296
2.112	37.59	98.8464	5.8207	-20.239
2.120	37.68	98.8377	5.8202	-20.183
2.128	37.77	98.8288	5.8197	-20.125
2.137	37.87	98.8199	5.8192	-20.067
2.145	37.96	98.8111	5.8186	-20.009
2.153	38.05	98.8021	5.8181	-19.952
2.162	38.14	98.7932	5.8176	-19.896
2.170	38.24	98.7842	5.8171	-19.840
2.178	38.33	98.7752	5.8165	-19.782
2.187	38.42	98.7661	5.8160	-19.726
2.195	38.51	98.7571	5.8155	-19.669
2.203	38.61	98.7480	5.8149	-19.612
2.212	38.70	98.7389	5.8144	-19.554
2.220	38.79	98.7298	5.8139	-19.498
2.228	38.89	98.7206	5.8133	-19.441
2.237	38.98	98.7114	5.8128	-19.384
2.245	39.07	98.7022	5.8122	-19.326
2.253	39.16	98.6930	5.8117	-19.269
2.262	39.26	98.6838	5.8111	-19.211
2.270	39.35	98.6746	5.8106	-19.153
2.278	39.44	98.6653	5.8101	-19.095
2.287	39.54	98.6560	5.8095	-19.037
2.295	39.63	98.6466	5.8090	-18.979
2.303	39.72	98.6372	5.8084	-18.921
2.312	39.81	98.6278	5.8078	-18.862
2.320	39.91	98.6184	5.8073	-18.804
2.328	40.00	98.6089	5.8067	-18.745
2.337	40.09	98.5995	5.8062	-18.687
2.345	40.19	98.5899	5.8056	-18.629
2.353	40.28	98.5804	5.8051	-18.570
2.362	40.37	98.5708	5.8045	-18.510
2.370	40.47	98.5612	5.8039	-18.451
2.378	40.56	98.5516	5.8034	-18.391
2.387	40.65	98.5419	5.8028	-18.332
2.395	40.75	98.5323	5.8022	-18.273
2.403	40.84	98.5226	5.8016	-18.213
2.412	40.93	98.5128	5.8011	-18.155
2.420	41.02	98.5030	5.8005	-18.096
2.428	41.12	98.4932	5.7999	-18.038
2.437	41.21	98.4834	5.7993	-17.980
2.445	41.30	98.4736	5.7988	-17.923
2.453	41.39	98.4637	5.7982	-17.866
2.462	41.49	98.4538	5.7976	-17.807
2.470	41.58	98.4439	5.7970	-17.750
2.478	41.67	98.4340	5.7964	-17.692
2.487	41.77	98.4240	5.7958	-17.634
2.495	41.86	98.4140	5.7953	-17.576
2.503	41.95	98.4040	5.7947	-17.519
2.512	42.04	98.3940	5.7941	-17.461
2.520	42.13	98.3839	5.7935	-17.403
2.528	42.23	98.3738	5.7929	-17.345
2.537	42.32	98.3637	5.7923	-17.287
2.545	42.41	98.3536	5.7917	-17.230
2.553	42.50	98.3434	5.7911	-17.171
2.562	42.60	98.3332	5.7905	-17.113
2.570	42.69	98.3230	5.7899	-17.055
2.578	42.78	98.3127	5.7893	-16.997
2.587	42.87	98.3024	5.7887	-16.938
2.595	42.96	98.2921	5.7881	-16.880
2.603	43.06	98.2818	5.7875	-16.821
2.612	43.15	98.2714	5.7869	-16.764
2.620	43.24	98.2610	5.7863	-16.705
2.628	43.33	98.2506	5.7856	-16.646
2.637	43.42	98.2402	5.7850	-16.588
2.645	43.52	98.2298	5.7844	-16.530
2.653	43.61	98.2193	5.7838	-16.472
2.662	43.70	98.2088	5.7832	-16.415
2.670	43.79	98.1982	5.7826	-16.357
2.678	43.88	98.1877	5.7819	-16.300
2.687	43.98	98.1771	5.7813	-16.243
2.695	44.07	98.1665	5.7807	-16.186
2.703	44.16	98.1559	5.7801	-16.128
2.712	44.25	98.1453	5.7794	-16.071
2.720	44.34	98.1347	5.7788	-16.013
2.728	44.43	98.1240	5.7782	-15.957
2.737	44.53	98.1133	5.7775	-15.900
2.745	44.62	98.1025	5.7769	-15.842
2.753	44.71	98.0918	5.7763	-15.786
2.762	44.80	98.0810	5.7756	-15.728
2.770	44.89	98.0702	5.7750	-15.671
2.778	44.98	98.0593	5.7744	-15.614
2.787	45.07	98.0485	5.7737	-15.558
2.795	45.16	98.0376	5.7731	-15.502
2.803	45.25	98.0267	5.7724	-15.447
2.812	45.34	98.0157	5.7718	-15.390
2.820	45.43	98.0048	5.7712	-15.335
2.828	45.52	97.9938	5.7705	-15.279
2.837	45.61	97.9828	5.7699	-15.222
2.845	45.71	97.9719	5.7692	-15.165
2.853	45.80	97.9608	5.7686	-15.109
2.862	45.89	97.9498	5.7679	-15.052
2.870	45.98	97.9387	5.7673	-14.995
2.878	46.07	97.9277	5.7666	-14.939
2.887	46.16	97.9166	5.7660	-14.883
2.895	46.25	97.9054	5.7653	-14.827
2.903	46.34	97.8943	5.7647	-14.770
2.912	46.43	97.8832	5.7640	-14.714
2.920	46.52	97.8720	5.7633	-14.659
2.928	46.61	97.8607	5.7627	-14.603
2.937	46.70	97.8495	5.7620	-14.548
2.945	46.79	97.8383	5.7614	-14.492
2.953	46.88	97.8270	5.7607	-14.437
2.962	46.97	97.8157	5.7600	-14.381
2.970	47.06	97.8044	5.7594	-14.325
2.978	47.15	97.7930	5.7587	-14.270
2.987	47.24	97.7816	5.7580	-14.214
2.995	47.33	97.7702	5.7573	-14.159
3.003	47.42	97.7588	5.7567	-14.104
3.012	47.51	97.7474	5.7560	-14.050
3.020	47.60	97.7359	5.7553	-13.996
3.028	47.68	97.7245	5.7547	-13.943
3.037	47.77	97.7130	5.7540	-13.890
3.045	47.86	97.7015	5.7533	-13.837
3.053	47.95	97.6899	5.7526	-13.784
3.062	48.04	97.6784	5.7519	-13.730
3.070	48.13	97.6668	5.7513	-13.676
3.078	48.22	97.6553	5.7506	-13.623
3.087	48.31	97.6437	5.7499	-13.569
3.095	48.40	97.6321	5.7492	-13.515
3.103	48.49	97.6205	5.7485	-13.461
3.112	48.57	97.6088	5.7478	-13.407
3.120	48.66	97.5972	5.7472	-13.353
3.128	48.75	97.5855	5.7465	-13.299
3.137	48.84	97.5739	5.7458	-13.245
3.145	48.93	97.5622	5.7451	-13.192
3.153	49.02	97.5505	5.7444	-13.139
3.162	49.11	97.5388	5.7437	-13.085
3.170	49.19	97.5270	5.7430	-13.032
3.178	49.28	97.5153	5.7423	-12.978
3.187	49.37	97.5035	5.7416	-12.925
3.195	49.46	97.4918	5.7410	-12.872
3.203	49.55	97.4800	5.7403	-12.819
3.212	49.64	97.4682	5.7396	-12.765
3.220	49.72	97.4564	5.7389	-12.712
3.228	49.81	97.4446	5.7382	-12.659
3.237	49.90	97.4328	5.7375	-12.607
3.245	49.99	97.4209	5.7368	-12.555
3.253	50.08	97.4090	5.7361	-12.503
3.262	50.16	97.3971	5.7354	-12.450
3.270	50.25	97.3852	5.7347	-12.398
3.278	50.34	97.3733	5.7340	-12.347
3.287	50.43	97.3613	5.7333	-12.295
3.295	50.51	97.3494	5.7326	-12.243
3.303	50.60	97.3374	5.7319	-12.191
3.312	50.69	97.3254	5.7312	-12.139
3.320	50.77	97.3134	5.7304	-12.086
3.328	50.86	97.3014	5.7297	-12.034
3.337	50.95	97.2894	5.7290	-11.983
3.345	51.04	97.2774	5.7283	-11.932
3.353	51.12	97.2654	5.7276	-11.880
3.362	51.21	97.2533	5.7269	-11.827
3.370	51.30	97.2413	5.7262	-11.775
3.378	51.39	97.2292	5.7255	-11.725
3.387	51.47	97.2171	5.7248	-11.673
3.395	51.56	97.2050	5.7241	-11.622
3.403	51.65	97.1929	5.7234	-11.570
3.412	51.73	97.1808	5.7226	-11.519
3.420	51.82	97.1687	5.7219	-11.467
3.428	51.91	97.1566	5.7212	-11.417
3.437	51.99	97.1444	5.7205	-11.365
3.445	52.08	97.1323	5.7198	-11.314
3.453	52.17	97.1202	5.7191	-11.263
3.462	52.25	97.1080	5.7184	-11.213
3.470	52.34	97.0959	5.7176	-11.163
3.478	52.43	97.0838	5.7169	-11.113
3.487	52.51	97.0716	5.7162	-11.062
3.495	52.60	97.0595	5.7155	-11.012
3.503	52.69	97.0474	5.7148	-10.963
3.512	52.77	97.0352	5.7141	-10.912
3.520	52.86	97.0231	5.7134	-10.863
3.528	52.95	97.0110	5.7126	-10.815
3.537	53.03	96.9988	5.7119	-10.766
3.545	53.12	96.9867	5.7112	-10.717
3.553	53.21	96.9745	5.7105	-10.668
3.562	53.29	96.9623	5.7098	-10.620
3.570	53.38	96.9502	5.7091	-10.571
3.578	53.46	96.9380	5.7083	-10.522
3.587	53.55	96.9258	5.7076	-10.473
3.595	53.64	96.9136	5.7069	-10.425
3.603	53.72	96.9014	5.7062	-10.377
3.612	53.81	96.8892	5.7055	-10.328
3.620	53.89	96.8770	5.7048	-10.279
3.628	53.98	96.8648	5.7040	-10.230
3.637	54.07	96.8526	5.7033	-10.181
3.645	54.15	96.8404	5.7026	-10.131
3.653	54.24	96.8282	5.7019	-10.084
3.662	54.32	96.8160	5.7012	-10.036
3.670	54.41	96.8038	5.7004	-9.989
3.678	54.49	96.7916	5.6997	-9.940
3.687	54.58	96.7794	5.6990	-9.892
3.695	54.67	96.7672	5.6983	-9.844
3.703	54.75	96.7550	5.6976	-9.797
3.712	54.84	96.7427	5.6968	-9.749
3.720	54.92	96.7305	5.6961	-9.702
3.728	55.01	96.7183	5.6954	-9.654
3.737	55.09	96.7061	5.6947	-9.606
3.745	55.18	96.6939	5.6940	-9.558
3.753	55.27	96.6817	5.6932	-9.510
3.762	55.35	96.6695	5.6925	-9.464
3.770	55.44	96.6573	5.6918	-9.417
3.778	55.52	96.6450	5.6911	-9.371
3.787	55.61	96.6328	5.6904	-9.324
3.795	55.69	96.6206	5.6897	-9.276
3.803	55.78	96.6084	5.6889	-9.228
3.812	55.86	96.5962	5.6882	-9.182
3.820	55.95	96.5840	5.6875	-9.135
3.828	56.04	96.5718	5.6868	-9.088
3.837	56.12	96.5596	5.6861	-9.041
3.845	56.21	96.5474	5.6853	-8.994
3.853	56.29	96.5352	5.6846	-8.948
3.862	56.38	96.5230	5.6839	-8.901
3.870	56.46	96.5109	5.6832	-8.855
3.878	56.55	96.4987	5.6825	-8.809
3.887	56.63	96.4865	5.6818	-8.763
3.895	56.72	96.4743	5.6810	-8.718
3.903	56.80	96.4622	5.6803	-8.672
3.912	56.89	96.4501	5.6796	-8.626
3.920	56.98	96.4379	5.6789	-8.580
3.928	57.06	96.4258	5.6782	-8.534
3.937	57.15	96.4137	5.6775	-8.486
3.945	57.23	96.4016	5.6768	-8.440
3.953	57.32	96.3895	5.6760	-8.394
3.962	57.40	96.3775	5.6753	-8.346
3.970	57.49	96.3654	5.6746	-8.301
3.978	57.57	96.3533	5.6739	-8.254
3.987	57.66	96.3413	5.6732	-8.208
3.995	57.74	96.3292	5.6725	-8.162
4.003	57.83	96.3172	5.6718	-8.115
4.012	57.91	96.3051	5.6711	-8.068
4.020	58.00	96.2931	5.6704	-8.023
4.028	58.08	96.2810	5.6697	-7.977
4.037	58.17	96.2690	5.6689	-7.931
4.045	58.25	96.2570	5.6682	-7.886
4.053	58.34	96.2450	5.6675	-7.840
4.062	58.42	96.2330	5.6668	-7.793
4.070	58.51	96.2210	5.6661	-7.747
4.078	58.59	96.2090	5.6654	-7.703
4.087	58.68	96.1970	5.6647	-7.659
4.095	58.76	96.1851	5.6640	-7.615
4.103	58.85	96.1731	5.6633	-7.569
4.112	58.93	96.1612	5.6626	-7.525
4.120	59.02	96.1493	5.6619	-7.479
4.128	59.10	96.1374	5.6612	-7.435
4.137	59.19	96.1255	5.6605	-7.390
4.145	59.27	96.1137	5.6598	-7.345
4.153	59.36	96.1018	5.6591	-7.301
4.162	59.44	96.0900	5.6584	-7.256
4.170	59.53	96.0782	5.6577	-7.211
4.178	59.61	96.0664	5.6570	-7.165
4.187	59.70	96.0546	5.6563	-7.120
4.195	59.78	96.0428	5.6556	-7.076
4.203	59.87	96.0310	5.6549	-7.032
4.212	59.95	96.0192	5.6542	-6.989
4.220	60.04	96.0075	5.6535	-6.945
4.228	60.12	95.9957	5.6529	-6.902
4.237	60.20	95.9840	5.6522	-6.859
4.245	60.29	95.9723	5.6515	-6.816
4.253	60.37	95.9606	5.6508	-6.772
4.262	60.46	95.9489	5.6501	-6.730
4.270	60.54	95.9372	5.6494	-6.688
4.278	60.63	95.9255	5.6487	-6.644
4.287	60.71	95.9139	5.6480	-6.600
4.295	60.80	95.9023	5.6474	-6.556
4.303	60.88	95.8906	5.6467	-6.513
4.312	60.97	95.8790	5.6460	-6.470
4.320	61.05	95.8674	5.6453	-6.426
4.328	61.14	95.8559	5.6446	-6.381
4.337	61.22	95.8443	5.6439	-6.336
4.345	61.31	95.8328	5.6433	-6.293
4.353	61.40	95.8213	5.6426	-6.249
4.362	61.48	95.8097	5.6419	-6.206
4.370	61.57	95.7982	5.6412	-6.163
4.378	61.65	95.7868	5.6405	-6.119
4.387	61.74	95.7753	5.6399	-6.076
4.395	61.82	95.7638	5.6392	-6.032
4.403	61.91	95.7524	5.6385	-5.990
4.412	61.99	95.7410	5.6379	-5.948
4.420	62.08	95.7296	5.6372	-5.907
4.428	62.16	95.7182	5.6365	-5.864
4.437	62.25	95.7068	5.6358	-5.821
4.445	62.33	95.6955	5.6352	-5.778
4.453	62.42	95.6842	5.6345	-5.736
4.462	62.50	95.6729	5.6338	-5.693
4.470	62.59	95.6616	5.6332	-5.652
4.478	62.67	95.6503	5.6325	-5.610
4.487	62.76	95.6391	5.6319	-5.567
4.495	62.84	95.6278	5.6312	-5.525
4.503	62.93	95.6166	5.6305	-5.482
4.512	63.01	95.6054	5.6299	-5.441
4.520	63.10	95.5942	5.6292	-5.399
4.528	63.18	95.5830	5.6285	-5.357
4.537	63.27	95.5718	5.6279	-5.316
4.545	63.35	95.5607	5.6272	-5.275
4.553	63.44	95.5495	5.6266	-5.233
4.562	63.52	95.5384	5.6259	-5.191
4.570	63.60	95.5273	5.6253	-5.151
4.578	63.69	95.5162	5.6246	-5.109
4.587	63.77	95.5051	5.6240	-5.069
4.595	63.86	95.4941	5.6233	-5.027
4.603	63.94	95.4831	5.6227	-4.986
4.612	64.03	95.4721	5.6220	-4.944
4.620	64.11	95.4611	5.6214	-4.903
4.628	64.20	95.4502	5.6207	-4.861
4.637	64.29	95.4392	5.6201	-4.820
4.645	64.37	95.4284	5.6194	-4.778
4.653	64.46	95.4175	5.6188	-4.736
4.662	64.54	95.4066	5.6182	-4.694
4.670	64.63	95.3958	5.6175	-4.653
4.678	64.71	95.3850	5.6169	-4.612
4.687	64.80	95.3742	5.6163	-4.571
4.695	64.88	95.3634	5.6156	-4.530
4.703	64.97	95.3527	5.6150	-4.489
4.712	65.05	95.3420	5.6144	-4.449
4.720	65.14	95.3313	5.6137	-4.408
4.728	65.22	95.3206	5.6131	-4.367
4.737	65.31	95.3100	5.6125	-4.327
4.745	65.39	95.2994	5.6118	-4.287
4.753	65.48	95.2888	5.6112	-4.246
4.762	65.57	95.2782	5.6106	-4.206
4.770	65.65	95.2677	5.6100	-4.165
4.778	65.74	95.2572	5.6094	-4.124
4.787	65.82	95.2467	5.6087	-4.083
4.795	65.91	95.2362	5.6081	-4.042
4.803	65.99	95.2258	5.6075	-4.001
4.812	66.08	95.2153	5.6069	-3.960
4.820	66.16	95.2049	5.6063	-3.920
4.828	66.25	95.1945	5.6057	-3.879
4.837	66.33	95.1842	5.6051	-3.839
4.845	66.42	95.1738	5.6045	-3.798
4.853	66.51	95.1635	5.6038	-3.758
4.862	66.59	95.1532	5.6032	-3.719
4.870	66.68	95.1430	5.6026	-3.679
4.878	66.76	95.1327	5.6020	-3.639
4.887	66.85	95.1225	5.6014	-3.599
4.895	66.93	95.1123	5.6008	-3.559
4.903	67.02	95.1021	5.6002	-3.519
4.912	67.10	95.0920	5.5996	-3.479
4.920	67.19	95.0819	5.5990	-3.439
4.928	67.28	95.0718	5.5984	-3.399
4.937	67.36	95.0617	5.5978	-3.359
4.945	67.45	95.0516	5.5973	-3.319
4.953	67.53	95.0415	5.5967	-3.278
4.962	67.62	95.0315	5.5961	-3.239
4.970	67.70	95.0215	5.5955	-3.200
4.978	67.79	95.0116	5.5949	-3.161
4.987	67.88	95.0016	5.5943	-3.121
4.995	67.96	94.9917	5.5937	-3.081
5.003	68.05	94.9818	5.5931	-3.041
5.012	68.13	94.9720	5.5926	-3.002
5.020	68.22	94.9621	5.5920	-2.962
5.028	68.30	94.9523	5.5914	-2.922
5.037	68.39	94.9425	5.5908	-2.883
5.045	68.48	94.9327	5.5903	-2.842
5.053	68.56	94.9230	5.5897	-2.803
5.062	68.65	94.9132	5.5891	-2.764
5.070	68.73	94.9035	5.5885	-2.726
5.078	68.82	94.8938	5.5880	-2.687
5.087	68.91	94.8841	5.5874	-2.648
5.095	68.99	94.8745	5.5868	-2.609
5.103	69.08	94.8649	5.5863	-2.572
5.112	69.16	94.8553	5.5857	-2.535
5.120	69.25	94.8457	5.5851	-2.498
5.128	69.33	94.8362	5.5846	-2.460
5.137	69.42	94.8266	5.5840	-2.423
5.145	69.51	94.8172	5.5835	-2.385
5.153	69.59	94.8077	5.5829	-2.347
5.162	69.68	94.7982	5.5823	-2.309
5.170	69.76	94.7888	5.5818	-2.271
5.178	69.85	94.7794	5.5812	-2.234
5.187	69.94	94.7700	5.5807	-2.197
5.195	70.02	94.7607	5.5801	-2.158
5.203	70.11	94.7514	5.5796	-2.121
5.212	70.19	94.7421	5.5790	-2.083
5.220	70.28	94.7328	5.5785	-2.044
5.228	70.37	94.7235	5.5779	-2.006
5.237	70.45	94.7143	5.5774	-1.969
5.245	70.54	94.7051	5.5769	-1.931
5.253	70.62	94.6960	5.5763	-1.893
5.262	70.71	94.6868	5.5758	-1.855
5.270	70.80	94.6777	5.5752	-1.816
5.278	70.88	94.6686	5.5747	-1.779
5.287	70.97	94.6596	5.5742	-1.741
5.295	71.06	94.6506	5.5736	-1.705
5.303	71.14	94.6415	5.5731	-1.668
5.312	71.23	94.6326	5.5726	-1.632
5.320	71.31	94.6236	5.5721	-1.595
5.328	71.40	94.6147	5.5715	-1.559
5.337	71.49	94.6057	5.5710	-1.523
5.345	71.57	94.5969	5.5705	-1.486
5.353	71.66	94.5880	5.5700	-1.450
5.362	71.75	94.5792	5.5694	-1.414
5.370	71.83	94.5704	5.5689	-1.376
5.378	71.92	94.5616	5.5684	-1.340
5.387	72.01	94.5528	5.5679	-1.304
5.395	72.09	94.5441	5.5674	-1.268
5.403	72.18	94.5354	5.5669	-1.232
5.412	72.26	94.5267	5.5663	-1.195
5.420	72.35	94.5181	5.5658	-1.160
5.428	72.44	94.5094	5.5653	-1.124
5.437	72.52	94.5008	5.5648	-1.088
5.445	72.61	94.4922	5.5643	-1.051
5.453	72.70	94.4837	5.5638	-1.016
5.462	72.78	94.4751	5.5633	-0.979
5.470	72.87	94.4666	5.5628	-0.942
5.478	72.96	94.4582	5.5623	-0.904
5.487	73.04	94.4497	5.5618	-0.869
5.495	73.13	94.4413	5.5613	-0.833
5.503	73.21	94.4329	5.5608	-0.796
5.512	73.30	94.4245	5.5603	-0.760
5.520	73.39	94.4162	5.5598	-0.725
5.528	73.47	94.4078	5.5593	-0.691
5.537	73.56	94.3995	5.5589	-0.656
5.545	73.65	94.3913	5.5584	-0.621
5.553	73.73	94.3830	5.5579	-0.587
5.562	73.82	94.3748	5.5574	-0.553
5.570	73.91	94.3666	5.5569	-0.516
5.578	73.99	94.3584	5.5564	-0.481
5.587	74.08	94.3503	5.5560	-0.445
5.595	74.17	94.3421	5.5555	-0.411
5.603	74.25	94.3340	5.5550	-0.375
5.612	74.34	94.3259	5.5545	-0.340
5.620	74.43	94.3178	5.5540	-0.305
5.628	74.52	94.3098	5.5536	-0.270
5.637	74.60	94.3018	5.5531	-0.233
5.645	74.69	94.2938	5.5526	-0.198
5.653	74.78	94.2858	5.5522	-0.164
5.662	74.86	94.2779	5.5517	-0.130
5.670	74.95	94.2699	5.5512	-0.095
5.678	75.04	94.2620	5.5508	-0.059
5.687	75.12	94.2542	5.5503	-0.024
5.695	75.21	94.2464	5.5498	0.010
5.703	75.30	94.2386	5.5494	0.046
5.712	75.38	94.2308	5.5489	0.080
5.720	75.47	94.2230	5.5485	0.114
5.728	75.56	94.2153	5.5480	0.147
5.737	75.64	94.2075	5.5476	0.180
5.745	75.73	94.1999	5.5471	0.215
5.753	75.82	94.1922	5.5467	0.248
5.762	75.90	94.1846	5.5462	0.281
5.770	75.99	94.1770	5.5458	0.314
5.778	76.08	94.1694	5.5453	0.347
5.787	76.16	94.1619	5.5449	0.380
5.795	76.25	94.1544	5.5444	0.414
5.803	76.34	94.1469	5.5440	0.448
5.812	76.42	94.1394	5.5435	0.482
5.820	76.51	94.1320	5.5431	0.516
5.828	76.60	94.1246	5.5427	0.550
5.837	76.69	94.1172	5.5422	0.584
5.845	76.77	94.1098	5.5418	0.617
5.853	76.86	94.1025	5.5414	0.650
5.862	76.95	94.0952	5.5409	0.684
5.870	77.03	94.0880	5.5405	0.716
5.878	77.12	94.0807	5.5401	0.749
5.887	77.21	94.0735	5.5397	0.782
5.895	77.29	94.0663	5.5392	0.814
5.903	77.38	94.0592	5.5388	0.847
5.912	77.47	94.0520	5.5384	0.881
5.920	77.56	94.0449	5.5380	0.913
5.928	77.64	94.0378	5.5376	0.945
5.937	77.73	94.0308	5.5371	0.977
5.945	77.82	94.0237	5.5367	1.011
5.953	77.90	94.0167	5.5363	1.045
5.962	77.99	94.0097	5.5359	1.077
5.970	78.08	94.0027	5.5355	1.109
5.978	78.17	93.9957	5.5351	1.141
5.987	78.25	93.9888	5.5347	1.172
5.995	78.34	93.9819	5.5343	1.202
6.003	78.43	93.9750	5.5339	1.233
6.012	78.51	93.9681	5.5335	1.264
6.020	78.60	93.9612	5.5330	1.295
6.028	78.69	93.9544	5.5326	1.325
6.037	78.77	93.9476	5.5322	1.355
6.045	78.86	93.9408	5.5318	1.385
6.053	78.95	93.9341	5.5314	1.415
6.062	79.03	93.9273	5.5311	1.446
6.070	79.12	93.9206	5.5307	1.476
6.078	79.21	93.9140	5.5303	1.508
6.087	79.30	93.9073	5.5299	1.538
6.095	79.38	93.9007	5.5295	1.569
6.103	79.47	93.8941	5.5291	1.599
6.112	79.56	93.8876	5.5287	1.631
6.120	79.64	93.8810	5.5283	1.663
6.128	79.73	93.8745	5.5279	1.695
6.137	79.82	93.8680	5.5276	1.725
6.145	79.91	93.8615	5.5272	1.755
6.153	79.99	93.8550	5.5268	1.785
6.162	80.08	93.8486	5.5264	1.815
6.170	80.17	93.8422	5.5260	1.846
6.178	80.25	93.8358	5.5257	1.877
6.187	80.34	93.8294	5.5253	1.907
6.195	80.43	93.8231	5.5249	1.937
6.203	80.52	93.8167	5.5245	1.966
6.212	80.60	93.8104	5.5242	1.996
6.220	80.69	93.8042	5.5238	2.027
6.228	80.78	93.7980	5.5234	2.058
6.237	80.86	93.7918	5.5231	2.089
6.245	80.95	93.7856	5.5227	2.119
6.253	81.04	93.7795	5.5223	2.148
6.262	81.13	93.7734	5.5220	2.177
6.270	81.21	93.7673	5.5216	2.206
6.278	81.30	93.7612	5.5213	2.235
6.287	81.39	93.7551	5.5209	2.264
6.295	81.47	93.7490	5.5206	2.292
6.303	81.56	93.7430	5.5202	2.320
6.312	81.65	93.7370	5.5198	2.349
6.320	81.74	93.7310	5.5195	2.378
6.328	81.82	93.7250	5.5191	2.406
6.337	81.91	93.7190	5.5188	2.434
6.345	82.00	93.7131	5.5184	2.462
6.353	82.08	93.7072	5.5181	2.492
6.362	82.17	93.7013	5.5177	2.520
6.370	82.26	93.6954	5.5174	2.549
6.378	82.35	93.6896	5.5171	2.578
6.387	82.43	93.6837	5.5167	2.607
6.395	82.52	93.6779	5.5164	2.637
6.403	82.61	93.6721	5.5160	2.665
6.412	82.69	93.6664	5.5157	2.694
6.420	82.78	93.6607	5.5154	2.723
6.428	82.87	93.6550	5.5150	2.752
6.437	82.96	93.6493	5.5147	2.780
6.445	83.04	93.6436	5.5143	2.810
6.453	83.13	93.6380	5.5140	2.838
6.462	83.22	93.6324	5.5137	2.867
6.470	83.30	93.6268	5.5134	2.895
6.478	83.39	93.6212	5.5130	2.923
6.487	83.48	93.6157	5.5127	2.952
6.495	83.57	93.6102	5.5124	2.980
6.503	83.65	93.6047	5.5121	3.008
6.512	83.74	93.5992	5.5117	3.035
6.520	83.83	93.5937	5.5114	3.062
6.528	83.92	93.5882	5.5111	3.088
6.537	84.00	93.5828	5.5108	3.114
6.545	84.09	93.5774	5.5104	3.140
6.553	84.18	93.5720	5.5101	3.167
6.562	84.26	93.5666	5.5098	3.194
6.570	84.35	93.5612	5.5095	3.220
6.578	84.44	93.5559	5.5092	3.246
6.587	84.53	93.5506	5.5089	3.272
6.595	84.61	93.5453	5.5086	3.299
6.603	84.70	93.5401	5.5082	3.324
6.612	84.79	93.5349	5.5079	3.351
6.620	84.87	93.5297	5.5076	3.378
6.628	84.96	93.5245	5.5073	3.403
6.637	85.05	93.5193	5.5070	3.428
6.645	85.13	93.5142	5.5067	3.453
6.653	85.22	93.5090	5.5064	3.480
6.662	85.31	93.5040	5.5061	3.505
6.670	85.40	93.4989	5.5058	3.530
6.678	85.48	93.4938	5.5055	3.556
6.687	85.57	93.4888	5.5052	3.582
6.695	85.66	93.4837	5.5049	3.608
6.703	85.74	93.4787	5.5046	3.633
6.712	85.83	93.4737	5.5043	3.659
6.720	85.92	93.4688	5.5041	3.684
6.728	86.01	93.4638	5.5038	3.708
6.737	86.09	93.4589	5.5035	3.733
6.745	86.18	93.4540	5.5032	3.758
6.753	86.27	93.4491	5.5029	3.783
6.762	86.35	93.4442	5.5026	3.807
6.770	86.44	93.4393	5.5023	3.832
6.778	86.53	93.4344	5.5020	3.856
6.787	86.62	93.4296	5.5017	3.881
6.795	86.70	93.4248	5.5015	3.905
6.803	86.79	93.4200	5.5012	3.930
6.812	86.88	93.4152	5.5009	3.956
6.820	86.96	93.4104	5.5006	3.982
6.828	87.05	93.4057	5.5003	4.006
6.837	87.14	93.4009	5.5001	4.031
6.845	87.23	93.3962	5.4998	4.054
6.853	87.31	93.3915	5.4995	4.078
6.862	87.40	93.3869	5.4992	4.104
6.870	87.49	93.3822	5.4990	4.129
6.878	87.57	93.3776	5.4987	4.153
6.887	87.66	93.3730	5.4984	4.177
6.895	87.75	93.3684	5.4981	4.200
6.903	87.83	93.3639	5.4979	4.222
6.912	87.92	93.3593	5.4976	4.245
6.920	88.01	93.3548	5.4973	4.269
6.928	88.09	93.3503	5.4971	4.294
6.937	88.18	93.3458	5.4968	4.318
6.945	88.27	93.3414	5.4965	4.341
6.953	88.36	93.3369	5.4963	4.363
6.962	88.44	93.3325	5.4960	4.386
6.970	88.53	93.3281	5.4958	4.407
6.978	88.62	93.3238	5.4955	4.430
6.987	88.70	93.3194	5.4953	4.452
6.995	88.79	93.3151	5.4950	4.474
7.003	88.88	93.3108	5.4947	4.497
7.012	88.96	93.3065	5.4945	4.519
7.020	89.05	93.3022	5.4942	4.541
7.028	89.14	93.2979	5.4940	4.562
7.037	89.22	93.2937	5.4937	4.584
7.045	89.31	93.2894	5.4935	4.607
7.053	89.40	93.2852	5.4932	4.630
7.062	89.49	93.2810	5.4930	4.654
7.070	89.57	93.2768	5.4927	4.677
7.078	89.66	93.2726	5.4925	4.699
7.087	89.75	93.2684	5.4923	4.722
7.095	89.83	93.2643	5.4920	4.743
7.103	89.92	93.2601	5.4918	4.765
7.112	90.01	93.2561	5.4915	4.788
7.120	90.09	93.2520	5.4913	4.810
7.128	90.18	93.2479	5.4910	4.832
7.137	90.27	93.2439	5.4908	4.852
7.145	90.35	93.2399	5.4906	4.873
7.153	90.44	93.2359	5.4903	4.893
7.162	90.53	93.2319	5.4901	4.914
7.170	90.61	93.2280	5.4899	4.935
7.178	90.70	93.2240	5.4896	4.956
7.187	90.79	93.2201	5.4894	4.976
7.195	90.87	93.2162	5.4892	4.996
7.203	90.96	93.2123	5.4889	5.015
7.212	91.05	93.2084	5.4887	5.034
7.220	91.14	93.2046	5.4885	5.055
7.228	91.22	93.2007	5.4883	5.076
7.237	91.31	93.1969	5.4880	5.097
7.245	91.40	93.1931	5.4878	5.118
7.253	91.48	93.1893	5.4876	5.138
7.262	91.57	93.1855	5.4874	5.158
7.270	91.66	93.1817	5.4871	5.179
7.278	91.74	93.1779	5.4869	5.199
7.287	91.83	93.1742	5.4867	5.220
7.295	91.92	93.1705	5.4865	5.241
7.303	92.00	93.1668	5.4863	5.260
7.312	92.09	93.1631	5.4861	5.279
7.320	92.18	93.1595	5.4858	5.298
7.328	92.26	93.1558	5.4856	5.316
7.337	92.35	93.1522	5.4854	5.335
7.345	92.44	93.1486	5.4852	5.354
7.353	92.52	93.1450	5.4850	5.373
7.362	92.61	93.1414	5.4848	5.392
7.370	92.70	93.1379	5.4846	5.411
7.378	92.78	93.1343	5.4844	5.429
7.387	92.87	93.1308	5.4841	5.448
7.395	92.96	93.1272	5.4839	5.467
7.403	93.04	93.1237	5.4837	5.486
7.412	93.13	93.1202	5.4835	5.504
7.420	93.22	93.1168	5.4833	5.523
7.428	93.30	93.1133	5.4831	5.541
7.437	93.39	93.1098	5.4829	5.558
7.445	93.48	93.1064	5.4827	5.575
7.453	93.56	93.1030	5.4825	5.594
7.462	93.65	93.0995	5.4823	5.611
7.470	93.74	93.0961	5.4821	5.629
7.478	93.82	93.0928	5.4819	5.647
7.487	93.91	93.0894	5.4817	5.664
7.495	94.00	93.0860	5.4815	5.681
7.503	94.08	93.0827	5.4813	5.697
7.512	94.17	93.0794	5.4811	5.714
7.520	94.26	93.0761	5.4809	5.732
7.528	94.34	93.0728	5.4807	5.750
7.537	94.43	93.0695	5.4805	5.767
7.545	94.52	93.0663	5.4803	5.784
7.553	94.60	93.0631	5.4802	5.801
7.562	94.69	93.0598	5.4800	5.818
7.570	94.78	93.0566	5.4798	5.834
7.578	94.86	93.0534	5.4796	5.851
7.587	94.95	93.0502	5.4794	5.869
7.595	95.04	93.0470	5.4792	5.887
7.603	95.12	93.0439	5.4790	5.903
7.612	95.21	93.0407	5.4788	5.919
7.620	95.29	93.0376	5.4787	5.934
7.628	95.38	93.0344	5.4785	5.950
7.637	95.47	93.0313	5.4783	5.966
7.645	95.55	93.0283	5.4781	5.983
7.653	95.64	93.0252	5.4779	5.999
7.662	95.73	93.0221	5.4777	6.015
7.670	95.81	93.0191	5.4776	6.030
7.678	95.90	93.0161	5.4774	6.046
7.687	95.99	93.0131	5.4772	6.061
7.695	96.07	93.0101	5.4770	6.077
7.703	96.16	93.0071	5.4769	6.093
7.712	96.25	93.0041	5.4767	6.109
7.720	96.33	93.0012	5.4765	6.124
7.728	96.42	92.9982	5.4763	6.139
7.737	96.51	92.9953	5.4762	6.155
7.745	96.59	92.9924	5.4760	6.172
7.753	96.68	92.9894	5.4758	6.188
7.762	96.77	92.9865	5.4757	6.203
7.770	96.85	92.9837	5.4755	6.218
7.778	96.94	92.9808	5.4753	6.233
7.787	97.03	92.9780	5.4751	6.249
7.795	97.11	92.9751	5.4750	6.264
7.803	97.20	92.9723	5.4748	6.279
7.812	97.28	92.9695	5.4746	6.294
7.820	97.37	92.9666	5.4745	6.309
7.828	97.46	92.9639	5.4743	6.323
7.837	97.54	92.9611	5.4742	6.338
7.845	97.63	92.9583	5.4740	6.352
7.853	97.72	92.9555	5.4738	6.367
7.862	97.80	92.9528	5.4737	6.382
7.870	97.89	92.9500	5.4735	6.395
7.878	97.98	92.9473	5.4733	6.407
7.887	98.06	92.9445	5.4732	6.420
7.895	98.15	92.9418	5.4730	6.432
7.903	98.23	92.9391	5.4729	6.444
7.912	98.32	92.9365	5.4727	6.456
7.920	98.41	92.9338	5.4725	6.469
7.928	98.49	92.9311	5.4724	6.482
7.937	98.58	92.9285	5.4722	6.495
7.945	98.67	92.9259	5.4721	6.509
7.953	98.75	92.9232	5.4719	6.524
7.962	98.84	92.9206	5.4718	6.538
7.970	98.92	92.9180	5.4716	6.552
7.978	99.01	92.9155	5.4715	6.567
7.987	99.10	92.9129	5.4713	6.581
7.995	99.18	92.9103	5.4712	6.595
8.003	99.27	92.9078	5.4710	6.606
8.012	99.36	92.9053	5.4709	6.618
8.020	99.44	92.9028	5.4707	6.630
8.028	99.53	92.9003	5.4706	6.642
8.037	99.62	92.8978	5.4704	6.654
8.045	99.70	92.8953	5.4703	6.667
8.053	99.79	92.8928	5.4701	6.680
8.062	99.87	92.8904	5.4700	6.691
8.070	99.96	92.8879	5.4698	6.704
8.078	100.05	92.8855	5.4697	6.717
8.087	100.13	92.8831	5.4696	6.730
8.095	100.22	92.8807	5.4694	6.744
8.103	100.31	92.8783	5.4693	6.756
8.112	100.39	92.8759	5.4691	6.769
8.120	100.48	92.8736	5.4690	6.781
8.128	100.56	92.8712	5.4689	6.793
8.137	100.65	92.8688	5.4687	6.804
8.145	100.74	92.8665	5.4686	6.816
8.153	100.82	92.8642	5.4684	6.827
8.162	100.91	92.8618	5.4683	6.838
8.170	101.00	92.8595	5.4682	6.849
8.178	101.08	92.8572	5.4680	6.860
8.187	101.17	92.8549	5.4679	6.870
8.195	101.25	92.8526	5.4678	6.881
8.203	101.34	92.8504	5.4676	6.891
8.212	101.43	92.8481	5.4675	6.903
8.220	101.51	92.8459	5.4674	6.914
8.228	101.60	92.8437	5.4672	6.926
8.237	101.69	92.8414	5.4671	6.938
8.245	101.77	92.8392	5.4670	6.950
8.253	101.86	92.8371	5.4669	6.961
8.262	101.94	92.8349	5.4667	6.972
8.270	102.03	92.8327	5.4666	6.983
8.278	102.12	92.8306	5.4665	6.995
8.287	102.20	92.8284	5.4663	7.005
8.295	102.29	92.8263	5.4662	7.016
8.303	102.38	92.8242	5.4661	7.027
8.312	102.46	92.8221	5.4660	7.038
8.320	102.55	92.8200	5.4658	7.049
8.328	102.63	92.8179	5.4657	7.059
8.337	102.72	92.8158	5.4656	7.070
8.345	102.81	92.8137	5.4655	7.080
8.353	102.89	92.8117	5.4654	7.089
8.362	102.98	92.8096	5.4652	7.097
8.370	103.07	92.8076	5.4651	7.106
8.378	103.15	92.8055	5.4650	7.114
8.387	103.24	92.8035	5.4649	7.121
8.395	103.32	92.8015	5.4648	7.129
8.403	103.41	92.7995	5.4646	7.137
8.412	103.50	92.7974	5.4645	7.145
8.420	103.58	92.7954	5.4644	7.153
8.428	103.67	92.7934	5.4643	7.162
8.437	103.76	92.7914	5.4642	7.172
8.445	103.84	92.7895	5.4640	7.182
8.453	103.93	92.7875	5.4639	7.191
8.462	104.01	92.7855	5.4638	7.201
8.470	104.10	92.7836	5.4637	7.210
8.478	104.19	92.7817	5.4636	7.220
8.487	104.27	92.7797	5.4635	7.230
8.495	104.36	92.7778	5.4634	7.239
8.503	104.44	92.7759	5.4633	7.249
8.512	104.53	92.7740	5.4631	7.257
8.520	104.61	92.7721	5.4630	7.266
8.528	104.70	92.7702	5.4629	7.274
8.537	104.79	92.7683	5.4628	7.282
8.545	104.87	92.7665	5.4627	7.291
8.553	104.96	92.7646	5.4626	7.299
8.562	105.04	92.7627	5.4625	7.307
8.570	105.13	92.7609	5.4624	7.314
8.578	105.22	92.7590	5.4623	7.322
8.587	105.30	92.7572	5.4621	7.330
8.595	105.39	92.7554	5.4620	7.338
8.603	105.47	92.7536	5.4619	7.347
8.612	105.56	92.7519	5.4618	7.356
8.620	105.65	92.7501	5.4617	7.364
8.628	105.73	92.7484	5.4616	7.372
8.637	105.82	92.7466	5.4615	7.379
8.645	105.91	92.7449	5.4614	7.387
8.653	105.99	92.7432	5.4613	7.395
8.662	106.08	92.7414	5.4612	7.402
8.670	106.16	92.7397	5.4611	7.409
8.678	106.25	92.7380	5.4610	7.416
8.687	106.34	92.7363	5.4609	7.422
8.695	106.42	92.7346	5.4608	7.429

[step]
Isothermal 30.0 min
Time	Temperature	Weight	Weight	Heat Flow
min	°C	%	mg	mW
8.703	106.51	92.7330	5.4607	7.436
8.728	106.77	92.7280	5.4604	7.457
8.753	107.03	92.7230	5.4601	7.478
8.778	107.28	92.7182	5.4599	7.498
8.803	107.54	92.7134	5.4596	7.520
8.828	107.79	92.7087	5.4593	7.547
8.853	108.04	92.7041	5.4590	7.580
8.878	108.29	92.6995	5.4588	7.614
8.903	108.54	92.6950	5.4585	7.651
8.928	108.78	92.6904	5.4582	7.691
8.953	109.02	92.6859	5.4580	7.737
8.978	109.26	92.6815	5.4577	7.789
9.003	109.49	92.6770	5.4574	7.844
9.028	109.71	92.6727	5.4572	7.904
9.053	109.93	92.6684	5.4569	7.969
9.078	110.15	92.6641	5.4567	8.035
9.103	110.36	92.6599	5.4564	8.107
9.128	110.56	92.6557	5.4562	8.183
9.153	110.76	92.6516	5.4559	8.265
9.178	110.95	92.6475	5.4557	8.350
9.203	111.13	92.6435	5.4555	8.437
9.228	111.31	92.6394	5.4552	8.528
9.253	111.49	92.6355	5.4550	8.620
9.278	111.65	92.6315	5.4547	8.715
9.303	111.81	92.6276	5.4545	8.812
9.328	111.97	92.6238	5.4543	8.912
9.353	112.11	92.6199	5.4541	9.014
9.378	112.25	92.6162	5.4538	9.116
9.403	112.39	92.6125	5.4536	9.221
9.428	112.51	92.6089	5.4534	9.328
9.453	112.63	92.6054	5.4532	9.437
9.478	112.74	92.6020	5.4530	9.546
9.503	112.85	92.5987	5.4528	9.658
9.528	112.94	92.5954	5.4526	9.771
9.553	113.03	92.5922	5.4524	9.888
9.578	113.11	92.5889	5.4522	10.004
9.603	113.19	92.5857	5.4521	10.121
9.628	113.26	92.5825	5.4519	10.234
9.653	113.32	92.5794	5.4517	10.346
9.678	113.38	92.5763	5.4515	10.456
9.703	113.43	92.5732	5.4513	10.566
9.728	113.47	92.5702	5.4511	10.674
9.753	113.51	92.5672	5.4510	10.777
9.778	113.54	92.5642	5.4508	10.879
9.803	113.57	92.5613	5.4506	10.980
9.828	113.59	92.5585	5.4504	11.080
9.853	113.61	92.5557	5.4503	11.178
9.878	113.62	92.5529	5.4501	11.272
9.903	113.63	92.5502	5.4500	11.360
9.928	113.63	92.5477	5.4498	11.445
9.953	113.63	92.5452	5.4497	11.528
9.978	113.63	92.5427	5.4495	11.609
10.003	113.62	92.5402	5.4494	11.688
10.028	113.60	92.5379	5.4492	11.765
10.053	113.59	92.5355	5.4491	11.840
10.078	113.57	92.5332	5.4490	11.909
10.103	113.54	92.5310	5.4488	11.976
10.128	113.52	92.5287	5.4487	12.035
10.153	113.49	92.5263	5.4486	12.095
10.178	113.46	92.5241	5.4484	12.148
10.203	113.43	92.5220	5.4483	12.197
10.228	113.40	92.5199	5.4482	12.239
10.253	113.37	92.5179	5.4481	12.277
10.278	113.33	92.5160	5.4479	12.313
10.303	113.29	92.5141	5.4478	12.345
10.328	113.26	92.5123	5.4477	12.372
10.353	113.22	92.5106	5.4476	12.395
10.378	113.19	92.5088	5.4475	12.416
10.403	113.15	92.5071	5.4474	12.436
10.428	113.11	92.5054	5.4473	12.454
10.453	113.07	92.5037	5.4472	12.469
10.478	113.03	92.5021	5.4471	12.479
10.503	112.99	92.5006	5.4470	12.488
10.528	112.95	92.4991	5.4469	12.495
10.553	112.92	92.4977	5.4469	12.501
10.578	112.88	92.4963	5.4468	12.507
10.603	112.84	92.4950	5.4467	12.512
10.628	112.80	92.4938	5.4466	12.515
10.653	112.76	92.4925	5.4466	12.519
10.678	112.73	92.4913	5.4465	12.521
10.703	112.69	92.4900	5.4464	12.523
10.728	112.65	92.4889	5.4463	12.523
10.753	112.62	92.4877	5.4463	12.522
10.778	112.58	92.4865	5.4462	12.520
10.803	112.55	92.4854	5.4461	12.517
10.828	112.52	92.4842	5.4461	12.514
10.853	112.49	92.4832	5.4460	12.510
10.878	112.46	92.4822	5.4460	12.505
10.903	112.43	92.4812	5.4459	12.497
10.928	112.40	92.4801	5.4458	12.487
10.953	112.37	92.4792	5.4458	12.474
10.978	112.34	92.4783	5.4457	12.460
11.003	112.32	92.4775	5.4457	12.444
11.028	112.29	92.4766	5.4456	12.425
11.053	112.27	92.4758	5.4456	12.408
11.078	112.25	92.4748	5.4455	12.392
11.103	112.23	92.4740	5.4455	12.379
11.128	112.21	92.4731	5.4454	12.365
11.153	112.19	92.4723	5.4454	12.347
11.178	112.17	92.4716	5.4453	12.328
11.203	112.16	92.4709	5.4453	12.309
11.228	112.14	92.4702	5.4452	12.292
11.253	112.13	92.4694	5.4452	12.275
11.278	112.11	92.4687	5.4452	12.258
11.303	112.10	92.4680	5.4451	12.242
11.328	112.09	92.4673	5.4451	12.227
11.353	112.08	92.4666	5.4450	12.213
[...]
158.195	949.77	4.5516	0.2680	101.192
158.203	949.77	4.5516	0.2680	101.201
158.212	949.77	4.5516	0.2680	101.210
158.220	949.77	4.5516	0.2680	101.219
158.228	949.77	4.5515	0.2680	101.230
158.237	949.77	4.5515	0.2680	101.240
158.245	949.77	4.5514	0.2680	101.250
158.253	949.77	4.5514	0.2680	101.261
158.262	949.78	4.5513	0.2680	101.270
158.270	949.78	4.5512	0.2680	101.279
158.278	949.78	4.5512	0.2680	101.290
158.287	949.78	4.5511	0.2680	101.300
158.295	949.78	4.5511	0.2680	101.311
158.303	949.78	4.5510	0.2680	101.322
158.312	949.78	4.5509	0.2680	101.332
158.320	949.78	4.5509	0.2680	101.343
158.328	949.78	4.5508	0.2680	101.354
158.337	949.78	4.5508	0.2680	101.364
158.345	949.78	4.5507	0.2680	101.375
158.353	949.78	4.5507	0.2680	101.385
158.362	949.78	4.5506	0.2680	101.396
158.370	949.78	4.5506	0.2680	101.406
158.378	949.78	4.5505	0.2680	101.416
158.387	949.78	4.5505	0.2680	101.426
158.395	949.78	4.5505	0.2680	101.435
158.403	949.78	4.5504	0.2680	101.444
158.412	949.78	4.5504	0.2680	101.453
158.420	949.78	4.5504	0.2680	101.461
158.428	949.78	4.5503	0.2680	101.469
158.437	949.79	4.5503	0.2679	101.477
158.445	949.79	4.5502	0.2679	101.485
158.453	949.79	4.5502	0.2679	101.491
158.462	949.79	4.5501	0.2679	101.497
158.470	949.79	4.5500	0.2679	101.502
158.478	949.79	4.5500	0.2679	101.507
158.487	949.79	4.5499	0.2679	101.512
158.495	949.79	4.5499	0.2679	101.517
158.503	949.79	4.5498	0.2679	101.523
158.512	949.79	4.5498	0.2679	101.529
158.520	949.79	4.5497	0.2679	101.535
158.528	949.79	4.5497	0.2679	101.542
158.537	949.79	4.5496	0.2679	101.550
158.545	949.79	4.5496	0.2679	101.557
158.553	949.79	4.5495	0.2679	101.565
158.562	949.79	4.5495	0.2679	101.572
158.570	949.79	4.5494	0.2679	101.580
158.578	949.79	4.5493	0.2679	101.587
158.587	949.79	4.5493	0.2679	101.595
158.595	949.79	4.5492	0.2679	101.602
158.603	949.79	4.5491	0.2679	101.609
158.612	949.79	4.5491	0.2679	101.615
158.620	949.79	4.5490	0.2679	101.620
158.628	949.79	4.5490	0.2679	101.626
158.637	949.79	4.5489	0.2679	101.633
158.645	949.80	4.5488	0.2679	101.640
158.653	949.80	4.5488	0.2679	101.646
158.662	949.80	4.5487	0.2679	101.653
158.670	949.80	4.5487	0.2679	101.659
158.678	949.80	4.5486	0.2679	101.666
158.687	949.80	4.5486	0.2678	101.672
158.695	949.80	4.5485	0.2678	101.678
158.703	949.80	4.5485	0.2678	101.684
158.712	949.80	4.5484	0.2678	101.690
158.720	949.80	4.5484	0.2678	101.695
158.728	949.80	4.5483	0.2678	101.699
158.737	949.80	4.5483	0.2678	101.704
158.745	949.80	4.5482	0.2678	101.708
158.753	949.80	4.5482	0.2678	101.713
158.762	949.80	4.5481	0.2678	101.718
158.770	949.80	4.5480	0.2678	101.723
158.778	949.80	4.5480	0.2678	101.729
158.787	949.80	4.5479	0.2678	101.735
158.795	949.80	4.5479	0.2678	101.741
158.803	949.80	4.5478	0.2678	101.747
158.812	949.80	4.5478	0.2678	101.752
158.820	949.80	4.5477	0.2678	101.758
158.828	949.80	4.5476	0.2678	101.765
158.837	949.80	4.5476	0.2678	101.771
158.845	949.80	4.5475	0.2678	101.778
158.853	949.80	4.5475	0.2678	101.784
158.862	949.81	4.5474	0.2678	101.790
158.870	949.81	4.5474	0.2678	101.797
158.878	949.81	4.5473	0.2678	101.804
158.887	949.81	4.5473	0.2678	101.812
158.895	949.81	4.5472	0.2678	101.819
158.903	949.81	4.5472	0.2678	101.826
158.912	949.81	4.5471	0.2678	101.833
158.920	949.81	4.5471	0.2678	101.840
158.928	949.81	4.5470	0.2678	101.846
158.937	949.81	4.5470	0.2678	101.852
158.945	949.81	4.5469	0.2678	101.859
158.953	949.81	4.5469	0.2677	101.864
158.962	949.81	4.5468	0.2677	101.869
158.970	949.81	4.5467	0.2677	101.875
158.978	949.81	4.5467	0.2677	101.880
158.987	949.81	4.5466	0.2677	101.887
158.995	949.81	4.5466	0.2677	101.893
159.003	949.81	4.5465	0.2677	101.899
159.012	949.81	4.5465	0.2677	101.905
159.020	949.81	4.5464	0.2677	101.911
159.028	949.81	4.5463	0.2677	101.918
159.037	949.81	4.5463	0.2677	101.925
159.045	949.81	4.5462	0.2677	101.932
159.053	949.81	4.5462	0.2677	101.939
159.062	949.81	4.5461	0.2677	101.946
159.070	949.81	4.5461	0.2677	101.952
159.078	949.81	4.5460	0.2677	101.958
159.087	949.81	4.5460	0.2677	101.964
159.095	949.81	4.5460	0.2677	101.970
159.103	949.81	4.5459	0.2677	101.976
159.112	949.82	4.5459	0.2677	101.982
159.120	949.82	4.5459	0.2677	101.989
159.128	949.82	4.5459	0.2677	101.996
159.137	949.82	4.5458	0.2677	102.003
159.145	949.82	4.5458	0.2677	102.010
159.153	949.82	4.5457	0.2677	102.018
159.162	949.82	4.5457	0.2677	102.026
159.170	949.82	4.5457	0.2677	102.034
159.178	949.82	4.5456	0.2677	102.042
159.187	949.82	4.5456	0.2677	102.050
159.195	949.82	4.5455	0.2677	102.057
159.203	949.82	4.5454	0.2677	102.063
159.212	949.82	4.5454	0.2677	102.069
159.220	949.82	4.5453	0.2677	102.075
159.228	949.82	4.5453	0.2677	102.081
159.237	949.82	4.5452	0.2677	102.086
159.245	949.82	4.5452	0.2676	102.090
159.253	949.82	4.5451	0.2676	102.095
159.262	949.82	4.5451	0.2676	102.099
159.270	949.82	4.5451	0.2676	102.103
159.278	949.82	4.5450	0.2676	102.107
159.287	949.82	4.5450	0.2676	102.112
159.295	949.82	4.5450	0.2676	102.116
159.303	949.82	4.5450	0.2676	102.120
159.312	949.82	4.5450	0.2676	102.124
159.320	949.82	4.5450	0.2676	102.128
159.328	949.82	4.5449	0.2676	102.133
159.337	949.82	4.5449	0.2676	102.136
159.345	949.82	4.5449	0.2676	102.140
159.353	949.82	4.5448	0.2676	102.144
159.362	949.82	4.5448	0.2676	102.148
159.370	949.83	4.5447	0.2676	102.152
159.378	949.83	4.5447	0.2676	102.156
159.387	949.83	4.5446	0.2676	102.160
159.395	949.83	4.5446	0.2676	102.164
159.403	949.83	4.5445	0.2676	102.168
159.412	949.83	4.5445	0.2676	102.173
159.420	949.83	4.5444	0.2676	102.178
159.428	949.83	4.5444	0.2676	102.183
159.437	949.83	4.5443	0.2676	102.188
159.445	949.83	4.5443	0.2676	102.193
159.453	949.83	4.5442	0.2676	102.197
159.462	949.83	4.5442	0.2676	102.202
159.470	949.83	4.5442	0.2676	102.208
159.478	949.83	4.5441	0.2676	102.213
159.487	949.83	4.5441	0.2676	102.220
159.495	949.83	4.5440	0.2676	102.226
159.503	949.83	4.5440	0.2676	102.232
159.512	949.83	4.5439	0.2676	102.238
159.520	949.83	4.5439	0.2676	102.245
159.528	949.83	4.5438	0.2676	102.251
159.537	949.83	4.5438	0.2676	102.257
159.545	949.83	4.5437	0.2676	102.263
159.553	949.83	4.5437	0.2676	102.269
159.562	949.83	4.5436	0.2676	102.274
159.570	949.83	4.5436	0.2676	102.281
159.578	949.83	4.5435	0.2676	102.287
159.587	949.83	4.5435	0.2676	102.293
159.595	949.83	4.5435	0.2675	102.298
159.603	949.83	4.5434	0.2675	102.304
159.612	949.83	4.5434	0.2675	102.310
159.620	949.83	4.5434	0.2675	102.317
159.628	949.83	4.5433	0.2675	102.323
159.637	949.83	4.5433	0.2675	102.329
159.645	949.83	4.5433	0.2675	102.336
159.653	949.83	4.5432	0.2675	102.341
159.662	949.83	4.5432	0.2675	102.346
159.670	949.83	4.5432	0.2675	102.352
159.678	949.83	4.5431	0.2675	102.357
159.687	949.83	4.5431	0.2675	102.363
159.695	949.83	4.5431	0.2675	102.369
159.703	949.83	4.5430	0.2675	102.375
159.712	949.83	4.5430	0.2675	102.382
159.720	949.83	4.5430	0.2675	102.389
159.728	949.84	4.5429	0.2675	102.395
159.737	949.84	4.5429	0.2675	102.401
159.745	949.84	4.5429	0.2675	102.407
159.753	949.84	4.5428	0.2675	102.412
159.762	949.84	4.5428	0.2675	102.418
159.770	949.84	4.5427	0.2675	102.423
159.778	949.84	4.5427	0.2675	102.428
159.787	949.84	4.5427	0.2675	102.432
159.795	949.84	4.5426	0.2675	102.434
159.803	949.84	4.5426	0.2675	102.437
159.812	949.84	4.5426	0.2675	102.440
159.820	949.84	4.5425	0.2675	102.444
159.828	949.84	4.5425	0.2675	102.448
159.837	949.84	4.5425	0.2675	102.451
159.845	949.84	4.5425	0.2675	102.455
159.853	949.84	4.5424	0.2675	102.459
159.862	949.84	4.5424	0.2675	102.463
159.870	949.84	4.5424	0.2675	102.467
159.878	949.84	4.5423	0.2675	102.471
159.887	949.84	4.5423	0.2675	102.476
159.895	949.84	4.5422	0.2675	102.480
159.903	949.84	4.5422	0.2675	102.485
159.912	949.84	4.5421	0.2675	102.489
159.920	949.84	4.5421	0.2675	102.493
159.928	949.84	4.5420	0.2675	102.498
159.937	949.84	4.5419	0.2675	102.502
159.945	949.84	4.5419	0.2675	102.505
159.953	949.84	4.5418	0.2675	102.509
159.962	949.84	4.5418	0.2674	102.513
159.970	949.84	4.5417	0.2674	102.517
159.978	949.84	4.5417	0.2674	102.521
159.987	949.84	4.5416	0.2674	102.524
159.995	949.84	4.5416	0.2674	102.528
160.003	949.84	4.5415	0.2674	102.531
160.012	949.84	4.5415	0.2674	102.534
160.020	949.84	4.5414	0.2674	102.537
160.028	949.84	4.5413	0.2674	102.540
160.037	949.84	4.5413	0.2674	102.544
160.045	949.85	4.5412	0.2674	102.547
160.053	949.85	4.5412	0.2674	102.551
160.062	949.85	4.5411	0.2674	102.555
160.070	949.85	4.5410	0.2674	102.559
160.078	949.85	4.5410	0.2674	102.562
160.087	949.85	4.5409	0.2674	102.566
160.095	949.85	4.5409	0.2674	102.569
160.103	949.85	4.5408	0.2674	102.573
160.112	949.85	4.5408	0.2674	102.576
160.120	949.85	4.5407	0.2674	102.578
160.128	949.85	4.5407	0.2674	102.582
160.137	949.85	4.5406	0.2674	102.585
160.145	949.85	4.5406	0.2674	102.588
160.153	949.85	4.5406	0.2674	102.591
160.162	949.85	4.5405	0.2674	102.595
160.170	949.85	4.5405	0.2674	102.598
160.178	949.85	4.5405	0.2674	102.602
160.187	949.85	4.5405	0.2674	102.606
160.195	949.85	4.5404	0.2674	102.610
160.203	949.85	4.5404	0.2674	102.614
160.212	949.85	4.5404	0.2674	102.617
160.220	949.85	4.5403	0.2674	102.620
160.228	949.85	4.5403	0.2674	102.624
160.237	949.85	4.5402	0.2674	102.627
160.245	949.85	4.5402	0.2674	102.631
160.253	949.85	4.5401	0.2674	102.635
160.262	949.85	4.5401	0.2673	102.639
160.270	949.85	4.5400	0.2673	102.642
160.278	949.85	4.5399	0.2673	102.646
160.287	949.85	4.5399	0.2673	102.649
160.295	949.85	4.5398	0.2673	102.653
160.303	949.85	4.5398	0.2673	102.657
160.312	949.85	4.5397	0.2673	102.661
160.320	949.85	4.5397	0.2673	102.664
160.328	949.85	4.5396	0.2673	102.667
160.337	949.85	4.5396	0.2673	102.670
160.345	949.85	4.5395	0.2673	102.673
160.353	949.85	4.5395	0.2673	102.677
160.362	949.85	4.5394	0.2673	102.680
160.370	949.85	4.5394	0.2673	102.684
160.378	949.85	4.5393	0.2673	102.688
160.387	949.85	4.5393	0.2673	102.692
160.395	949.85	4.5392	0.2673	102.696
160.403	949.85	4.5392	0.2673	102.701
160.412	949.85	4.5391	0.2673	102.705
160.420	949.85	4.5391	0.2673	102.710
160.428	949.85	4.5390	0.2673	102.715
160.437	949.85	4.5390	0.2673	102.720
160.445	949.85	4.5389	0.2673	102.724
160.453	949.85	4.5389	0.2673	102.729
160.462	949.85	4.5388	0.2673	102.733
160.470	949.85	4.5388	0.2673	102.738
160.478	949.85	4.5388	0.2673	102.742
160.487	949.85	4.5387	0.2673	102.747
160.495	949.85	4.5387	0.2673	102.752
160.503	949.85	4.5386	0.2673	102.757
160.512	949.85	4.5386	0.2673	102.761
160.520	949.85	4.5385	0.2673	102.765
160.528	949.85	4.5385	0.2673	102.770
160.537	949.85	4.5384	0.2673	102.774
160.545	949.85	4.5384	0.2672	102.778
160.553	949.86	4.5383	0.2672	102.783
160.562	949.86	4.5383	0.2672	102.786
160.570	949.86	4.5382	0.2672	102.790
160.578	949.86	4.5382	0.2672	102.794
160.587	949.86	4.5381	0.2672	102.797
160.595	949.86	4.5381	0.2672	102.801
160.603	949.86	4.5380	0.2672	102.805
160.612	949.86	4.5379	0.2672	102.810
160.620	949.86	4.5379	0.2672	102.814
160.628	949.86	4.5378	0.2672	102.819
160.637	949.86	4.5377	0.2672	102.822
160.645	949.86	4.5377	0.2672	102.826
160.653	949.86	4.5376	0.2672	102.830
160.662	949.86	4.5375	0.2672	102.833
160.670	949.86	4.5375	0.2672	102.837
160.678	949.86	4.5374	0.2672	102.840
160.687	949.86	4.5374	0.2672	102.843
160.695	949.86	4.5374	0.2672	102.845
160.703	949.86	4.5373	0.2672	102.847
160.712	949.86	4.5373	0.2672	102.850
160.720	949.86	4.5373	0.2672	102.853
160.728	949.86	4.5372	0.2672	102.856
160.737	949.86	4.5372	0.2672	102.859
160.745	949.86	4.5371	0.2672	102.863
160.753	949.86	4.5371	0.2672	102.866
160.762	949.86	4.5371	0.2672	102.868
160.770	949.86	4.5370	0.2672	102.871
160.778	949.86	4.5369	0.2672	102.874
160.787	949.86	4.5369	0.2672	102.876
160.795	949.86	4.5369	0.2672	102.879
160.803	949.86	4.5368	0.2672	102.881
160.812	949.86	4.5367	0.2672	102.884
160.820	949.86	4.5367	0.2671	102.887
160.828	949.86	4.5366	0.2671	102.890
160.837	949.86	4.5365	0.2671	102.893
160.845	949.86	4.5365	0.2671	102.896
160.853	949.86	4.5364	0.2671	102.899
160.862	949.86	4.5364	0.2671	102.902
160.870	949.86	4.5363	0.2671	102.905
160.878	949.86	4.5362	0.2671	102.908
160.887	949.86	4.5362	0.2671	102.911
160.895	949.86	4.5361	0.2671	102.915
160.903	949.86	4.5361	0.2671	102.918
160.912	949.86	4.5360	0.2671	102.921
160.920	949.86	4.5360	0.2671	102.924
160.928	949.86	4.5360	0.2671	102.927
160.937	949.86	4.5359	0.2671	102.930
160.945	949.86	4.5359	0.2671	102.933
160.953	949.86	4.5359	0.2671	102.937
160.962	949.86	4.5358	0.2671	102.940
160.970	949.86	4.5358	0.2671	102.944
160.978	949.86	4.5357	0.2671	102.947
160.987	949.87	4.5357	0.2671	102.950
160.995	949.87	4.5356	0.2671	102.954
161.003	949.87	4.5356	0.2671	102.957
161.012	949.87	4.5356	0.2671	102.961
161.020	949.87	4.5355	0.2671	102.965
161.028	949.87	4.5355	0.2671	102.969
161.037	949.87	4.5355	0.2671	102.972
161.045	949.87	4.5354	0.2671	102.975
161.053	949.87	4.5354	0.2671	102.977
161.062	949.87	4.5353	0.2671	102.981
161.070	949.87	4.5353	0.2671	102.983
161.078	949.87	4.5353	0.2671	102.986
161.087	949.87	4.5352	0.2671	102.989
161.095	949.87	4.5352	0.2671	102.991
161.103	949.87	4.5351	0.2671	102.993
161.112	949.87	4.5351	0.2671	102.996
161.120	949.87	4.5350	0.2671	103.000
161.128	949.87	4.5350	0.2670	103.003
161.137	949.87	4.5350	0.2670	103.006
161.145	949.87	4.5349	0.2670	103.009
161.153	949.87	4.5349	0.2670	103.012
161.162	949.87	4.5348	0.2670	103.015
161.170	949.87	4.5348	0.2670	103.018
161.178	949.87	4.5348	0.2670	103.021
161.187	949.87	4.5347	0.2670	103.025
161.195	949.87	4.5347	0.2670	103.028
161.203	949.87	4.5347	0.2670	103.031
161.212	949.87	4.5347	0.2670	103.034
161.220	949.87	4.5346	0.2670	103.037
161.228	949.87	4.5346	0.2670	103.041
161.237	949.87	4.5346	0.2670	103.044
161.245	949.87	4.5345	0.2670	103.047
161.253	949.87	4.5345	0.2670	103.050
161.262	949.87	4.5345	0.2670	103.052
161.270	949.87	4.5344	0.2670	103.054
161.278	949.87	4.5344	0.2670	103.057
161.287	949.87	4.5344	0.2670	103.058
161.295	949.87	4.5344	0.2670	103.060
161.303	949.87	4.5343	0.2670	103.062
161.312	949.87	4.5343	0.2670	103.064
161.320	949.87	4.5342	0.2670	103.066
161.328	949.87	4.5342	0.2670	103.068
161.337	949.87	4.5342	0.2670	103.069
161.345	949.87	4.5341	0.2670	103.071
161.353	949.87	4.5341	0.2670	103.073
161.362	949.87	4.5341	0.2670	103.075
161.370	949.87	4.5340	0.2670	103.076
161.378	949.87	4.5340	0.2670	103.078
161.387	949.87	4.5339	0.2670	103.080
161.395	949.87	4.5338	0.2670	103.081
161.403	949.87	4.5338	0.2670	103.083
161.412	949.87	4.5337	0.2670	103.084
161.420	949.87	4.5337	0.2670	103.086
161.428	949.87	4.5336	0.2670	103.088
161.437	949.87	4.5335	0.2670	103.090
161.445	949.87	4.5335	0.2670	103.092
161.453	949.87	4.5334	0.2670	103.094
161.462	949.87	4.5334	0.2670	103.096
161.470	949.87	4.5333	0.2670	103.099
161.478	949.87	4.5333	0.2670	103.102
161.487	949.87	4.5333	0.2669	103.104
161.495	949.87	4.5332	0.2669	103.107
161.503	949.88	4.5332	0.2669	103.110
161.512	949.88	4.5331	0.2669	103.113
161.520	949.88	4.5331	0.2669	103.116
161.528	949.88	4.5331	0.2669	103.118
161.537	949.87	4.5330	0.2669	103.121
161.545	949.87	4.5329	0.2669	103.124
161.553	949.87	4.5329	0.2669	103.127
161.562	949.87	4.5328	0.2669	103.129
161.570	949.87	4.5328	0.2669	103.131
161.578	949.87	4.5327	0.2669	103.134
161.587	949.87	4.5327	0.2669	103.136
161.595	949.88	4.5326	0.2669	103.138
161.603	949.88	4.5326	0.2669	103.141
161.612	949.88	4.5325	0.2669	103.143
161.620	949.88	4.5325	0.2669	103.146
161.628	949.88	4.5324	0.2669	103.149
161.637	949.88	4.5324	0.2669	103.151
161.645	949.88	4.5323	0.2669	103.153
161.653	949.88	4.5322	0.2669	103.156
161.662	949.88	4.5322	0.2669	103.159
161.670	949.88	4.5321	0.2669	103.162
161.678	949.88	4.5320	0.2669	103.165
161.687	949.88	4.5319	0.2669	103.168
161.695	949.88	4.5319	0.2669	103.170
161.703	949.88	4.5318	0.2669	103.173
161.712	949.88	4.5317	0.2669	103.176
161.720	949.88	4.5317	0.2669	103.179
161.728	949.88	4.5316	0.2669	103.182
161.737	949.88	4.5315	0.2668	103.185
161.745	949.88	4.5315	0.2668	103.188
161.753	949.88	4.5314	0.2668	103.191
161.762	949.88	4.5313	0.2668	103.194
161.770	949.88	4.5313	0.2668	103.197
161.778	949.88	4.5312	0.2668	103.200
161.787	949.88	4.5312	0.2668	103.203
161.795	949.88	4.5311	0.2668	103.206
161.803	949.88	4.5311	0.2668	103.209
161.812	949.88	4.5311	0.2668	103.212
161.820	949.88	4.5310	0.2668	103.215
161.828	949.88	4.5310	0.2668	103.218
161.837	949.88	4.5310	0.2668	103.221
161.845	949.88	4.5309	0.2668	103.224
161.853	949.88	4.5309	0.2668	103.227
161.862	949.88	4.5309	0.2668	103.230
161.870	949.88	4.5309	0.2668	103.234
161.878	949.88	4.5308	0.2668	103.237
161.887	949.88	4.5308	0.2668	103.240
161.895	949.88	4.5307	0.2668	103.243
161.903	949.88	4.5307	0.2668	103.246
161.912	949.88	4.5307	0.2668	103.248
161.920	949.88	4.5306	0.2668	103.250
161.928	949.88	4.5306	0.2668	103.252
161.937	949.88	4.5305	0.2668	103.254
161.945	949.88	4.5305	0.2668	103.255
161.953	949.88	4.5304	0.2668	103.257
161.962	949.88	4.5304	0.2668	103.259
161.970	949.88	4.5304	0.2668	103.260
161.978	949.88	4.5303	0.2668	103.262
161.987	949.88	4.5303	0.2668	103.264
161.995	949.88	4.5302	0.2668	103.266
162.003	949.88	4.5302	0.2668	103.268
162.012	949.88	4.5301	0.2668	103.270
162.020	949.88	4.5301	0.2668	103.271
162.028	949.88	4.5300	0.2668	103.273
162.037	949.88	4.5299	0.2668	103.276
162.045	949.88	4.5299	0.2667	103.278
162.053	949.88	4.5298	0.2667	103.281
162.062	949.88	4.5297	0.2667	103.283
162.070	949.88	4.5297	0.2667	103.286
162.078	949.88	4.5296	0.2667	103.289
162.087	949.88	4.5296	0.2667	103.291
162.095	949.88	4.5295	0.2667	103.294
162.103	949.88	4.5294	0.2667	103.296
162.112	949.88	4.5294	0.2667	103.298
162.120	949.88	4.5293	0.2667	103.300
162.128	949.88	4.5293	0.2667	103.302
162.137	949.88	4.5292	0.2667	103.304
162.145	949.88	4.5292	0.2667	103.306
162.153	949.88	4.5292	0.2667	103.307
162.162	949.88	4.5291	0.2667	103.309
162.170	949.88	4.5291	0.2667	103.311
162.178	949.88	4.5290	0.2667	103.313
162.187	949.88	4.5290	0.2667	103.315
162.195	949.88	4.5290	0.2667	103.316
162.203	949.88	4.5289	0.2667	103.318
162.212	949.88	4.5289	0.2667	103.320
162.220	949.88	4.5288	0.2667	103.322
162.228	949.88	4.5288	0.2667	103.324
162.237	949.88	4.5287	0.2667	103.326
162.245	949.88	4.5287	0.2667	103.328
162.253	949.88	4.5286	0.2667	103.331
162.262	949.88	4.5285	0.2667	103.333
162.270	949.88	4.5284	0.2667	103.336
162.278	949.88	4.5284	0.2667	103.339
162.287	949.88	4.5283	0.2667	103.342
162.295	949.88	4.5282	0.2667	103.345
162.303	949.88	4.5282	0.2666	103.348
162.312	949.88	4.5282	0.2666	103.351
162.320	949.88	4.5281	0.2666	103.355
162.328	949.88	4.5281	0.2666	103.358
162.337	949.88	4.5281	0.2666	103.361
162.345	949.88	4.5280	0.2666	103.364
162.353	949.88	4.5280	0.2666	103.367
162.362	949.88	4.5280	0.2666	103.371
162.370	949.88	4.5279	0.2666	103.374
162.378	949.88	4.5279	0.2666	103.377
162.387	949.88	4.5279	0.2666	103.380
162.395	949.88	4.5278	0.2666	103.383
162.403	949.88	4.5278	0.2666	103.386
162.412	949.88	4.5277	0.2666	103.389
162.420	949.88	4.5276	0.2666	103.391
162.428	949.88	4.5276	0.2666	103.394
162.437	949.88	4.5275	0.2666	103.396
162.445	949.88	4.5275	0.2666	103.398
162.453	949.88	4.5274	0.2666	103.400
162.462	949.88	4.5274	0.2666	103.402
162.470	949.88	4.5274	0.2666	103.404
162.478	949.88	4.5273	0.2666	103.406
162.487	949.88	4.5273	0.2666	103.408
162.495	949.88	4.5272	0.2666	103.410
162.503	949.88	4.5272	0.2666	103.412
162.512	949.88	4.5272	0.2666	103.415
162.520	949.89	4.5271	0.2666	103.418
162.528	949.89	4.5271	0.2666	103.422
162.537	949.89	4.5270	0.2666	103.425
162.545	949.89	4.5270	0.2666	103.429
162.553	949.89	4.5269	0.2666	103.432
162.562	949.89	4.5269	0.2666	103.435
162.570	949.89	4.5269	0.2666	103.438
162.578	949.89	4.5268	0.2666	103.441
162.587	949.89	4.5268	0.2666	103.444
162.595	949.89	4.5268	0.2666	103.447
162.603	949.89	4.5268	0.2666	103.449
162.612	949.89	4.5267	0.2666	103.451
162.620	949.89	4.5267	0.2666	103.453
162.628	949.89	4.5266	0.2666	103.454
162.637	949.89	4.5266	0.2666	103.456
162.645	949.89	4.5265	0.2666	103.458
162.653	949.89	4.5265	0.2665	103.460
162.662	949.89	4.5264	0.2665	103.462
162.670		4.5263	0.2665
162.678		4.5263	0.2665
162.687		4.5262	0.2665
162.695		4.5261	0.2665
162.703		4.5261	0.2665