File: example/intro_tga_data_analysis/CLSOx5_1.txt
Time	Temperature	Weight	Weight	Heat Flow
min	°C	%	µg	mW
0.003		100.0004	18762.1
0.012		100.0010	18762.2
0.020		100.0015	18762.3
0.028		100.0020	18762.4
0.037		100.0025	18762.5
0.045	18.54	100.0029	18762.6	-16.450
0.053	18.54	100.0033	18762.7	-16.449
0.062	18.54	100.0036	18762.7	-16.448
0.070	18.54	100.0038	18762.8	-16.448
0.078	18.54	100.0040	18762.8	-16.447
0.087	18.54	100.0041	18762.8	-16.446
0.095	18.55	100.0042	18762.8	-16.446
0.103	18.55	100.0043	18762.8	-16.445
0.112	18.55	100.0042	18762.8	-16.445
0.120	18.55	100.0042	18762.8	-16.445
0.128	18.55	100.0040	18762.8	-16.444
0.137	18.55	100.0038	18762.8	-16.444
0.145	18.56	100.0035	18762.7	-16.444
0.153	18.56	100.0032	18762.6	-16.444
0.162	18.56	100.0028	18762.6	-16.444
0.170	18.56	100.0023	18762.5	-16.444
0.178	18.57	100.0017	18762.4	-16.444
0.187	18.57	100.0011	18762.2	-16.445
0.195	18.57	100.0003	18762.1	-16.445
0.203	18.58	99.9995	18761.9	-16.446
0.212	18.58	99.9986	18761.8	-16.446
0.220	18.58	99.9976	18761.6	-16.447
0.228	18.59	99.9966	18761.4	-16.448
0.237	18.59	99.9954	18761.2	-16.449
0.245	18.60	99.9943	18761	-16.450
0.253	18.60	99.9930	18760.7	-16.452
0.262	18.61	99.9916	18760.5	-16.453
0.270	18.62	99.9901	18760.2	-16.454
0.278	18.63	99.9886	18759.9	-16.456
0.287	18.63	99.9869	18759.6	-16.457
0.295	18.64	99.9851	18759.3	-16.458
0.303	18.65	99.9832	18758.9	-16.460
0.312	18.66	99.9812	18758.5	-16.460
0.320	18.67	99.9791	18758.1	-16.461
0.328	18.68	99.9769	18757.7	-16.462
0.337	18.69	99.9747	18757.3	-16.462
0.345	18.71	99.9724	18756.9	-16.462
0.353	18.72	99.9700	18756.4	-16.462
0.362	18.73	99.9676	18756	-16.462
0.370	18.75	99.9651	18755.5	-16.462
0.378	18.77	99.9627	18755	-16.461
0.387	18.78	99.9602	18754.6	-16.461
0.395	18.80	99.9578	18754.1	-16.460
0.403	18.82	99.9553	18753.7	-16.459
0.412	18.84	99.9529	18753.2	-16.457
0.420	18.86	99.9505	18752.8	-16.455
0.428	18.88	99.9481	18752.3	-16.451
0.437	18.90	99.9457	18751.9	-16.447
0.445	18.92	99.9433	18751.4	-16.443
0.453	18.95	99.9410	18751	-16.437
0.462	18.97	99.9387	18750.5	-16.431
0.470	19.00	99.9364	18750.1	-16.424
0.478	19.03	99.9341	18749.7	-16.417
0.487	19.05	99.9319	18749.3	-16.409
0.495	19.08	99.9297	18748.9	-16.401
0.503	19.11	99.9276	18748.5	-16.392
0.512	19.14	99.9254	18748.1	-16.383
0.520	19.17	99.9233	18747.7	-16.373
0.528	19.20	99.9213	18747.3	-16.363
0.537	19.23	99.9192	18746.9	-16.353
0.545	19.27	99.9172	18746.5	-16.342
0.553	19.30	99.9152	18746.1	-16.330
0.562	19.34	99.9133	18745.8	-16.318
0.570	19.37	99.9113	18745.4	-16.305
0.578	19.41	99.9094	18745.1	-16.291
0.587	19.45	99.9075	18744.7	-16.277
0.595	19.49	99.9057	18744.4	-16.263
0.603	19.53	99.9039	18744	-16.247
0.612	19.57	99.9020	18743.7	-16.231
0.620	19.61	99.9003	18743.3	-16.215
0.628	19.65	99.8985	18743	-16.199
0.637	19.70	99.8968	18742.7	-16.182
0.645	19.74	99.8951	18742.4	-16.164
0.653	19.79	99.8934	18742	-16.145
0.662	19.84	99.8917	18741.7	-16.127
0.670	19.88	99.8901	18741.4	-16.107
0.678	19.93	99.8884	18741.1	-16.087
0.687	19.98	99.8868	18740.8	-16.068
0.695	20.03	99.8853	18740.5	-16.048
0.703	20.08	99.8837	18740.2	-16.026
0.712	20.13	99.8822	18739.9	-16.004
0.720	20.19	99.8806	18739.7	-15.982
0.728	20.24	99.8791	18739.4	-15.959
0.737	20.29	99.8777	18739.1	-15.937
0.745	20.35	99.8762	18738.8	-15.914
0.753	20.40	99.8747	18738.5	-15.889
0.762	20.46	99.8733	18738.3	-15.865
0.770	20.52	99.8719	18738	-15.840
0.778	20.58	99.8705	18737.7	-15.814
0.787	20.64	99.8691	18737.5	-15.788
0.795	20.70	99.8677	18737.2	-15.762
0.803	20.76	99.8664	18737	-15.735
0.812	20.82	99.8650	18736.7	-15.707
0.820	20.88	99.8637	18736.5	-15.679
0.828	20.95	99.8623	18736.2	-15.651
0.837	21.01	99.8610	18736	-15.622
0.845	21.07	99.8597	18735.7	-15.593
0.853	21.14	99.8585	18735.5	-15.563
0.862	21.21	99.8572	18735.3	-15.533
0.870	21.27	99.8559	18735	-15.503
0.878	21.34	99.8547	18734.8	-15.472
0.887	21.41	99.8534	18734.5	-15.441
0.895	21.48	99.8522	18734.3	-15.408
0.903	21.55	99.8510	18734.1	-15.375
0.912	21.62	99.8498	18733.9	-15.342
0.920	21.69	99.8486	18733.6	-15.308
0.928	21.76	99.8474	18733.4	-15.274
0.937	21.84	99.8462	18733.2	-15.239
0.945	21.91	99.8451	18733	-15.202
0.953	21.98	99.8439	18732.8	-15.165
0.962	22.06	99.8428	18732.5	-15.127
0.970	22.13	99.8416	18732.3	-15.089
0.978	22.21	99.8405	18732.1	-15.050
0.987	22.29	99.8393	18731.9	-15.010
0.995	22.37	99.8382	18731.7	-14.970
1.003	22.44	99.8371	18731.5	-14.928
1.012	22.52	99.8360	18731.3	-14.885
1.020	22.60	99.8349	18731.1	-14.840
1.028	22.68	99.8338	18730.9	-14.796
1.037	22.77	99.8327	18730.7	-14.751
1.045	22.85	99.8316	18730.4	-14.705
1.053	22.93	99.8305	18730.2	-14.659
1.062	23.01	99.8294	18730	-14.612
1.070	23.10	99.8283	18729.8	-14.564
1.078	23.18	99.8272	18729.6	-14.515
1.087	23.26	99.8261	18729.4	-14.467
1.095	23.35	99.8250	18729.2	-14.420
1.103	23.43	99.8239	18729	-14.372
1.112	23.52	99.8228	18728.8	-14.323
1.120	23.61	99.8217	18728.6	-14.274
1.128	23.69	99.8206	18728.4	-14.223
1.137	23.78	99.8195	18728.2	-14.171
1.145	23.87	99.8184	18728	-14.120
1.153	23.96	99.8173	18727.8	-14.068
1.162	24.05	99.8162	18727.6	-14.015
1.170	24.14	99.8150	18727.3	-13.961
1.178	24.23	99.8139	18727.1	-13.906
1.187	24.32	99.8128	18726.9	-13.850
1.195	24.41	99.8117	18726.7	-13.794
1.203	24.50	99.8106	18726.5	-13.737
1.212	24.59	99.8094	18726.3	-13.680
1.220	24.68	99.8083	18726.1	-13.621
1.228	24.78	99.8071	18725.9	-13.562
1.237	24.87	99.8060	18725.6	-13.503
1.245	24.96	99.8048	18725.4	-13.443
1.253	25.06	99.8036	18725.2	-13.382
1.262	25.15	99.8025	18725	-13.321
1.270	25.25	99.8013	18724.8	-13.260
1.278	25.34	99.8001	18724.5	-13.198
1.287	25.44	99.7989	18724.3	-13.136
1.295	25.53	99.7976	18724.1	-13.073
1.303	25.63	99.7964	18723.8	-13.011
1.312	25.73	99.7952	18723.6	-12.948
1.320	25.82	99.7939	18723.4	-12.885
1.328	25.92	99.7926	18723.1	-12.822
1.337	26.02	99.7913	18722.9	-12.758
1.345	26.12	99.7901	18722.7	-12.695
1.353	26.22	99.7887	18722.4	-12.631
1.362	26.31	99.7874	18722.2	-12.566
1.370	26.41	99.7861	18721.9	-12.502
1.378	26.51	99.7847	18721.7	-12.436
1.387	26.61	99.7834	18721.4	-12.370
1.395	26.71	99.7820	18721.1	-12.304
1.403	26.81	99.7806	18720.9	-12.237
1.412	26.92	99.7792	18720.6	-12.170
1.420	27.02	99.7778	18720.4	-12.103
1.428	27.12	99.7764	18720.1	-12.036
1.437	27.22	99.7750	18719.8	-11.968
1.445	27.32	99.7735	18719.6	-11.900
1.453	27.42	99.7721	18719.3	-11.832
1.462	27.52	99.7706	18719	-11.763
1.470	27.63	99.7691	18718.7	-11.694
1.478	27.73	99.7676	18718.4	-11.626
1.487	27.83	99.7661	18718.2	-11.557
1.495	27.94	99.7646	18717.9	-11.488
1.503	28.04	99.7630	18717.6	-11.419
1.512	28.14	99.7615	18717.3	-11.349
1.520	28.25	99.7599	18717	-11.280
1.528	28.35	99.7583	18716.7	-11.210
1.537	28.45	99.7567	18716.4	-11.141
1.545	28.56	99.7551	18716.1	-11.072
1.553	28.66	99.7535	18715.8	-11.002
1.562	28.77	99.7519	18715.5	-10.933
1.570	28.87	99.7502	18715.2	-10.864
1.578	28.98	99.7486	18714.9	-10.795
1.587	29.08	99.7469	18714.6	-10.725
1.595	29.18	99.7452	18714.2	-10.656
1.603	29.29	99.7435	18713.9	-10.585
1.612	29.39	99.7418	18713.6	-10.515
1.620	29.50	99.7401	18713.3	-10.445
1.628	29.61	99.7383	18712.9	-10.375
1.637	29.71	99.7366	18712.6	-10.305
1.645	29.82	99.7348	18712.3	-10.235
1.653	29.92	99.7330	18712	-10.164
1.662	30.03	99.7312	18711.6	-10.093
1.670	30.13	99.7294	18711.3	-10.022
1.678	30.24	99.7276	18710.9	-9.952
1.687	30.35	99.7258	18710.6	-9.881
1.695	30.45	99.7239	18710.2	-9.811
1.703	30.56	99.7221	18709.9	-9.741
1.712	30.67	99.7202	18709.5	-9.670
1.720	30.77	99.7183	18709.2	-9.599
1.728	30.88	99.7164	18708.8	-9.528
1.737	30.98	99.7145	18708.5	-9.457
1.745	31.09	99.7125	18708.1	-9.386
1.753	31.20	99.7106	18707.8	-9.316
1.762	31.30	99.7086	18707.4	-9.245
1.770	31.41	99.7067	18707	-9.175
1.778	31.52	99.7047	18706.6	-9.105
1.787	31.62	99.7027	18706.3	-9.034
1.795	31.73	99.7007	18705.9	-8.963
1.803	31.84	99.6986	18705.5	-8.894
1.812	31.94	99.6966	18705.1	-8.824
1.820	32.05	99.6945	18704.7	-8.754
1.828	32.16	99.6925	18704.3	-8.685
1.837	32.26	99.6904	18704	-8.615
1.845	32.37	99.6883	18703.6	-8.545
1.853	32.48	99.6862	18703.2	-8.475
1.862	32.58	99.6841	18702.8	-8.406
1.870	32.69	99.6819	18702.4	-8.337
1.878	32.79	99.6798	18702	-8.268
1.887	32.90	99.6776	18701.6	-8.199
1.895	33.01	99.6754	18701.2	-8.131
1.903	33.11	99.6732	18700.7	-8.062
1.912	33.22	99.6710	18700.3	-7.993
1.920	33.32	99.6688	18699.9	-7.924
1.928	33.43	99.6666	18699.5	-7.856
1.937	33.53	99.6643	18699.1	-7.788
1.945	33.64	99.6621	18698.6	-7.719
1.953	33.75	99.6598	18698.2	-7.651
1.962	33.85	99.6575	18697.8	-7.583
1.970	33.96	99.6552	18697.4	-7.515
1.978	34.06	99.6529	18696.9	-7.448
1.987	34.17	99.6506	18696.5	-7.380
1.995	34.27	99.6482	18696	-7.313
2.003	34.38	99.6459	18695.6	-7.246
2.012	34.48	99.6435	18695.2	-7.179
2.020	34.59	99.6411	18694.7	-7.112
2.028	34.69	99.6387	18694.3	-7.045
2.037	34.80	99.6363	18693.8	-6.979
2.045	34.90	99.6339	18693.4	-6.912
2.053	35.01	99.6315	18692.9	-6.847
2.062	35.11	99.6290	18692.4	-6.780
2.070	35.22	99.6266	18692	-6.714
2.078	35.32	99.6241	18691.5	-6.647
2.087	35.42	99.6216	18691	-6.582
2.095	35.53	99.6190	18690.6	-6.518
2.103	35.63	99.6165	18690.1	-6.452
2.112	35.74	99.6140	18689.6	-6.386
2.120	35.84	99.6114	18689.1	-6.322
2.128	35.94	99.6088	18688.7	-6.256
2.137	36.05	99.6063	18688.2	-6.191
2.145	36.15	99.6037	18687.7	-6.126
2.153	36.25	99.6011	18687.2	-6.062
2.162	36.36	99.5984	18686.7	-5.998
2.170	36.46	99.5958	18686.2	-5.934
2.178	36.56	99.5931	18685.7	-5.870
2.187	36.66	99.5905	18685.2	-5.806
2.195	36.77	99.5878	18684.7	-5.743
2.203	36.87	99.5851	18684.2	-5.680
2.212	36.97	99.5824	18683.7	-5.617
2.220	37.07	99.5796	18683.2	-5.555
2.228	37.17	99.5769	18682.7	-5.493
2.237	37.27	99.5741	18682.1	-5.431
2.245	37.38	99.5713	18681.6	-5.369
2.253	37.48	99.5686	18681.1	-5.307
2.262	37.58	99.5658	18680.6	-5.245
2.270	37.68	99.5629	18680	-5.184
2.278	37.78	99.5601	18679.5	-5.123
2.287	37.88	99.5573	18679	-5.062
2.295	37.98	99.5544	18678.4	-5.001
2.303	38.08	99.5515	18677.9	-4.940
2.312	38.18	99.5486	18677.4	-4.880
2.320	38.28	99.5457	18676.8	-4.820
2.328	38.38	99.5428	18676.3	-4.759
2.337	38.48	99.5399	18675.7	-4.699
2.345	38.58	99.5369	18675.2	-4.640
2.353	38.68	99.5339	18674.6	-4.581
2.362	38.78	99.5309	18674	-4.523
2.370	38.88	99.5279	18673.5	-4.464
2.378	38.98	99.5249	18672.9	-4.406
2.387	39.08	99.5219	18672.3	-4.348
2.395	39.18	99.5188	18671.8	-4.290
2.403	39.28	99.5158	18671.2	-4.232
2.412	39.37	99.5127	18670.6	-4.175
2.420	39.47	99.5096	18670	-4.118
2.428	39.57	99.5065	18669.5	-4.060
2.437	39.67	99.5033	18668.9	-4.002
2.445	39.77	99.5002	18668.3	-3.945
2.453	39.86	99.4970	18667.7	-3.889
2.462	39.96	99.4939	18667.1	-3.832
2.470	40.06	99.4907	18666.5	-3.775
2.478	40.15	99.4874	18665.9	-3.719
2.487	40.25	99.4842	18665.3	-3.663
2.495	40.35	99.4810	18664.7	-3.607
2.503	40.44	99.4777	18664.1	-3.551
2.512	40.54	99.4745	18663.4	-3.496
2.520	40.64	99.4712	18662.8	-3.441
2.528	40.73	99.4679	18662.2	-3.386
2.537	40.83	99.4646	18661.6	-3.331
2.545	40.93	99.4612	18661	-3.277
2.553	41.02	99.4579	18660.3	-3.222
2.562	41.12	99.4545	18659.7	-3.169
2.570	41.21	99.4511	18659.1	-3.115
2.578	41.31	99.4477	18658.4	-3.061
2.587	41.40	99.4443	18657.8	-3.007
2.595	41.49	99.4409	18657.1	-2.953
2.603	41.59	99.4375	18656.5	-2.901
2.612	41.68	99.4340	18655.9	-2.848
2.620	41.78	99.4305	18655.2	-2.796
2.628	41.87	99.4271	18654.6	-2.744
2.637	41.97	99.4235	18653.9	-2.692
2.645	42.06	99.4200	18653.2	-2.640
2.653	42.16	99.4165	18652.6	-2.588
2.662	42.25	99.4129	18651.9	-2.536
2.670	42.34	99.4094	18651.2	-2.485
2.678	42.44	99.4058	18650.6	-2.434
2.687	42.53	99.4022	18649.9	-2.384
2.695	42.62	99.3986	18649.2	-2.333
2.703	42.72	99.3949	18648.5	-2.283
2.712	42.81	99.3913	18647.8	-2.232
2.720	42.90	99.3876	18647.2	-2.182
2.728	42.99	99.3839	18646.5	-2.132
2.737	43.09	99.3803	18645.8	-2.083
2.745	43.18	99.3765	18645.1	-2.035
2.753	43.27	99.3728	18644.4	-1.986
2.762	43.36	99.3691	18643.7	-1.937
2.770	43.45	99.3653	18643	-1.888
2.778	43.55	99.3616	18642.3	-1.840
2.787	43.64	99.3578	18641.6	-1.792
2.795	43.73	99.3540	18640.8	-1.743
2.803	43.82	99.3502	18640.1	-1.695
2.812	43.91	99.3463	18639.4	-1.647
2.820	44.00	99.3425	18638.7	-1.598
2.828	44.09	99.3386	18638	-1.550
2.837	44.18	99.3348	18637.2	-1.502
2.845	44.27	99.3309	18636.5	-1.454
2.853	44.36	99.3270	18635.8	-1.407
2.862	44.45	99.3230	18635	-1.361
2.870	44.54	99.3191	18634.3	-1.314
2.878	44.63	99.3151	18633.6	-1.267
2.887	44.72	99.3112	18632.8	-1.221
2.895	44.81	99.3072	18632.1	-1.174
2.903	44.90	99.3032	18631.3	-1.128
2.912	44.99	99.2992	18630.6	-1.082
2.920	45.08	99.2951	18629.8	-1.036
2.928	45.17	99.2911	18629	-0.990
2.937	45.26	99.2870	18628.3	-0.944
2.945	45.35	99.2829	18627.5	-0.898
2.953	45.44	99.2788	18626.7	-0.852
2.962	45.53	99.2747	18626	-0.806
2.970	45.62	99.2706	18625.2	-0.761
2.978	45.70	99.2664	18624.4	-0.716
2.987	45.79	99.2623	18623.6	-0.672
2.995	45.88	99.2581	18622.9	-0.628
3.003	45.97	99.2539	18622.1	-0.583
3.012	46.06	99.2497	18621.3	-0.539
3.020	46.15	99.2455	18620.5	-0.495
3.028	46.23	99.2413	18619.7	-0.452
3.037	46.32	99.2371	18618.9	-0.409
3.045	46.41	99.2328	18618.1	-0.365
3.053	46.50	99.2285	18617.3	-0.321
3.062	46.59	99.2243	18616.5	-0.278
3.070	46.67	99.2200	18615.7	-0.235
3.078	46.76	99.2157	18614.9	-0.192
3.087	46.85	99.2113	18614.1	-0.149
3.095	46.94	99.2070	18613.3	-0.106
3.103	47.02	99.2026	18612.4	-0.063
3.112	47.11	99.1983	18611.6	-0.021
3.120	47.20	99.1939	18610.8	0.021
3.128	47.28	99.1895	18610	0.063
3.137	47.37	99.1851	18609.1	0.104
3.145	47.46	99.1806	18608.3	0.145
3.153	47.54	99.1762	18607.5	0.187
3.162	47.63	99.1717	18606.6	0.229
3.170	47.72	99.1673	18605.8	0.270
3.178	47.80	99.1628	18605	0.312
3.187	47.89	99.1583	18604.1	0.353
3.195	47.98	99.1538	18603.3	0.395
3.203	48.06	99.1492	18602.4	0.436
3.212	48.15	99.1447	18601.6	0.478
3.220	48.24	99.1402	18600.7	0.519
3.228	48.32	99.1356	18599.9	0.560
3.237	48.41	99.1310	18599	0.601
3.245	48.49	99.1264	18598.1	0.641
3.253	48.58	99.1218	18597.3	0.682
3.262	48.67	99.1172	18596.4	0.722
3.270	48.75	99.1126	18595.6	0.762
3.278	48.84	99.1080	18594.7	0.803
3.287	48.92	99.1033	18593.8	0.842
3.295	49.01	99.0987	18592.9	0.882
3.303	49.10	99.0940	18592.1	0.922
3.312	49.18	99.0893	18591.2	0.961
3.320	49.27	99.0846	18590.3	1.001
3.328	49.35	99.0799	18589.4	1.041
3.337	49.44	99.0751	18588.5	1.080
3.345	49.52	99.0704	18587.6	1.119
3.353	49.61	99.0656	18586.7	1.158
3.362	49.69	99.0608	18585.8	1.197
3.370	49.78	99.0560	18584.9	1.237
3.378	49.86	99.0512	18584	1.277
3.387	49.95	99.0464	18583.1	1.316
3.395	50.03	99.0416	18582.2	1.354
3.403	50.12	99.0367	18581.3	1.393
3.412	50.20	99.0318	18580.4	1.432
3.420	50.29	99.0270	18579.5	1.471
3.428	50.37	99.0221	18578.6	1.510
3.437	50.46	99.0172	18577.7	1.550
3.445	50.54	99.0123	18576.7	1.589
3.453	50.63	99.0074	18575.8	1.627
3.462	50.71	99.0025	18574.9	1.666
3.470	50.80	98.9975	18574	1.704
3.478	50.88	98.9926	18573	1.743
3.487	50.97	98.9876	18572.1	1.782
3.495	51.05	98.9826	18571.2	1.820
3.503	51.14	98.9776	18570.2	1.858
3.512	51.22	98.9725	18569.3	1.896
3.520	51.31	98.9675	18568.3	1.933
3.528	51.39	98.9624	18567.4	1.970
3.537	51.48	98.9573	18566.4	2.008
3.545	51.56	98.9522	18565.5	2.045
3.553	51.65	98.9471	18564.5	2.083
3.562	51.73	98.9420	18563.5	2.121
3.570	51.82	98.9369	18562.6	2.158
3.578	51.90	98.9317	18561.6	2.196
3.587	51.98	98.9265	18560.6	2.234
3.595	52.07	98.9213	18559.7	2.272
3.603	52.15	98.9161	18558.7	2.310
3.612	52.24	98.9109	18557.7	2.348
3.620	52.32	98.9056	18556.7	2.386
3.628	52.41	98.9003	18555.7	2.423
3.637	52.49	98.8950	18554.7	2.460
3.645	52.58	98.8897	18553.7	2.498
3.653	52.66	98.8844	18552.7	2.535
3.662	52.74	98.8790	18551.7	2.572
3.670	52.83	98.8737	18550.7	2.609
3.678	52.91	98.8683	18549.7	2.646
3.687	53.00	98.8629	18548.7	2.683
3.695	53.08	98.8575	18547.7	2.720
3.703	53.17	98.8521	18546.7	2.756
3.712	53.25	98.8468	18545.7	2.793
3.720	53.33	98.8414	18544.7	2.830
3.728	53.42	98.8360	18543.7	2.867
3.737	53.50	98.8306	18542.6	2.904
3.745	53.59	98.8252	18541.6	2.941
3.753	53.67	98.8197	18540.6	2.978
3.762	53.76	98.8143	18539.6	3.014
3.770	53.84	98.8088	18538.5	3.051
3.778	53.93	98.8033	18537.5	3.087
3.787	54.01	98.7978	18536.5	3.123
3.795	54.10	98.7923	18535.5	3.161
3.803	54.18	98.7868	18534.4	3.197
3.812	54.26	98.7813	18533.4	3.233
3.820	54.35	98.7757	18532.3	3.270
3.828	54.43	98.7702	18531.3	3.306
3.837	54.52	98.7646	18530.3	3.341
3.845	54.60	98.7590	18529.2	3.377
3.853	54.69	98.7534	18528.2	3.413
3.862	54.77	98.7477	18527.1	3.449
3.870	54.85	98.7420	18526	3.486
3.878	54.94	98.7363	18525	3.521
3.887	55.02	98.7306	18523.9	3.557
3.895	55.11	98.7249	18522.8	3.593
3.903	55.19	98.7191	18521.7	3.629
3.912	55.27	98.7134	18520.7	3.666
3.920	55.36	98.7077	18519.6	3.702
3.928	55.44	98.7020	18518.5	3.739
3.937	55.53	98.6963	18517.4	3.775
3.945	55.61	98.6906	18516.4	3.811
3.953	55.70	98.6849	18515.3	3.848
3.962	55.78	98.6791	18514.2	3.884
3.970	55.87	98.6733	18513.1	3.920
3.978	55.95	98.6676	18512.1	3.956
3.987	56.04	98.6618	18511	3.991
3.995	56.12	98.6561	18509.9	4.026
4.003	56.21	98.6503	18508.8	4.062
4.012	56.29	98.6445	18507.7	4.097
4.020	56.38	98.6387	18506.6	4.133
4.028	56.46	98.6329	18505.6	4.169
4.037	56.55	98.6271	18504.5	4.205
4.045	56.63	98.6213	18503.4	4.241
4.053	56.71	98.6155	18502.3	4.277
4.062	56.80	98.6098	18501.2	4.313
4.070	56.88	98.6040	18500.1	4.349
4.078	56.97	98.5982	18499	4.385
4.087	57.05	98.5923	18497.9	4.420
4.095	57.14	98.5864	18496.8	4.456
4.103	57.22	98.5805	18495.7	4.493
4.112	57.31	98.5746	18494.6	4.528
4.120	57.39	98.5687	18493.5	4.564
4.128	57.48	98.5628	18492.4	4.600
4.137	57.56	98.5569	18491.3	4.636
4.145	57.65	98.5509	18490.2	4.672
4.153	57.73	98.5450	18489.1	4.708
4.162	57.82	98.5391	18488	4.744
4.170	57.90	98.5332	18486.9	4.780
4.178	57.99	98.5273	18485.7	4.817
4.187	58.07	98.5215	18484.6	4.852
4.195	58.16	98.5156	18483.5	4.888
4.203	58.24	98.5097	18482.4	4.924
4.212	58.33	98.5038	18481.3	4.960
4.220	58.41	98.4979	18480.2	4.995
4.228	58.50	98.4919	18479.1	5.031
4.237	58.58	98.4859	18478	5.067
4.245	58.67	98.4799	18476.8	5.104
4.253	58.76	98.4739	18475.7	5.139
4.262	58.84	98.4680	18474.6	5.175
4.270	58.93	98.4620	18473.5	5.211
4.278	59.01	98.4561	18472.4	5.246
4.287	59.10	98.4502	18471.3	5.281
4.295	59.18	98.4443	18470.2	5.317
4.303	59.27	98.4384	18469.1	5.352
4.312	59.35	98.4326	18468	5.389
4.320	59.44	98.4267	18466.9	5.424
4.328	59.52	98.4209	18465.8	5.461
4.337	59.61	98.4149	18464.7	5.497
4.345	59.69	98.4090	18463.5	5.533
4.353	59.78	98.4031	18462.4	5.569
4.362	59.86	98.3972	18461.3	5.606
4.370	59.95	98.3913	18460.2	5.643
4.378	60.04	98.3853	18459.1	5.680
4.387	60.12	98.3793	18458	5.716
4.395	60.21	98.3734	18456.9	5.753
4.403	60.29	98.3674	18455.7	5.790
4.412	60.38	98.3615	18454.6	5.826
4.420	60.46	98.3556	18453.5	5.862
4.428	60.55	98.3497	18452.4	5.899
4.437	60.64	98.3438	18451.3	5.936
4.445	60.72	98.3378	18450.2	5.972
4.453	60.81	98.3319	18449.1	6.009
4.462	60.89	98.3260	18448	6.045
4.470	60.98	98.3201	18446.9	6.082
4.478	61.06	98.3142	18445.8	6.118
4.487	61.15	98.3083	18444.7	6.155
4.495	61.24	98.3024	18443.5	6.192
4.503	61.32	98.2966	18442.4	6.228
4.512	61.41	98.2907	18441.3	6.264
4.520	61.50	98.2847	18440.2	6.299
4.528	61.58	98.2788	18439.1	6.335
4.537	61.67	98.2730	18438	6.371
4.545	61.75	98.2671	18436.9	6.406
4.553	61.84	98.2611	18435.8	6.442
4.562	61.93	98.2552	18434.7	6.478
4.570	62.01	98.2493	18433.6	6.513
4.578	62.10	98.2434	18432.5	6.549
4.587	62.18	98.2374	18431.4	6.585
4.595	62.27	98.2315	18430.2	6.622
4.603	62.36	98.2256	18429.1	6.658
4.612	62.44	98.2198	18428	6.696
4.620	62.53	98.2139	18426.9	6.732
4.628	62.62	98.2081	18425.8	6.769
4.637	62.70	98.2022	18424.7	6.805
4.645	62.79	98.1964	18423.7	6.842
4.653	62.87	98.1906	18422.6	6.878
4.662	62.96	98.1847	18421.5	6.916
4.670	63.05	98.1789	18420.4	6.952
4.678	63.13	98.1730	18419.3	6.989
4.687	63.22	98.1671	18418.2	7.026
4.695	63.31	98.1613	18417.1	7.062
4.703	63.39	98.1554	18416	7.098
4.712	63.48	98.1496	18414.9	7.135
4.720	63.57	98.1437	18413.8	7.171
4.728	63.65	98.1379	18412.7	7.208
4.737	63.74	98.1321	18411.6	7.244
4.745	63.83	98.1262	18410.5	7.281
4.753	63.91	98.1204	18409.4	7.318
4.762	64.00	98.1146	18408.3	7.355
4.770	64.09	98.1088	18407.2	7.391
4.778	64.17	98.1031	18406.1	7.427
4.787	64.26	98.0972	18405.1	7.464
4.795	64.35	98.0914	18404	7.501
4.803	64.43	98.0856	18402.9	7.538
4.812	64.52	98.0798	18401.8	7.574
4.820	64.61	98.0740	18400.7	7.611
4.828	64.69	98.0682	18399.6	7.648
4.837	64.78	98.0625	18398.5	7.684
4.845	64.87	98.0567	18397.4	7.720
4.853	64.95	98.0510	18396.4	7.757
4.862	65.04	98.0452	18395.3	7.794
4.870	65.13	98.0395	18394.2	7.831
4.878	65.21	98.0338	18393.1	7.867
4.887	65.30	98.0281	18392.1	7.904
4.895	65.39	98.0223	18391	7.941
4.903	65.48	98.0166	18389.9	7.978
4.912	65.56	98.0109	18388.8	8.014
4.920	65.65	98.0051	18387.8	8.050
4.928	65.74	97.9994	18386.7	8.087
4.937	65.82	97.9936	18385.6	8.124
4.945	65.91	97.9879	18384.5	8.161
4.953	66.00	97.9821	18383.4	8.199
4.962	66.08	97.9764	18382.4	8.236
4.970	66.17	97.9707	18381.3	8.272
4.978	66.26	97.9650	18380.2	8.309
4.987	66.34	97.9593	18379.2	8.346
4.995	66.43	97.9536	18378.1	8.384
5.003	66.52	97.9480	18377	8.422
5.012	66.61	97.9423	18376	8.459
5.020	66.69	97.9367	18374.9	8.496
5.028	66.78	97.9310	18373.9	8.533
5.037	66.87	97.9254	18372.8	8.569
5.045	66.96	97.9197	18371.7	8.606
5.053	67.04	97.9141	18370.7	8.643
5.062	67.13	97.9085	18369.6	8.680
5.070	67.22	97.9028	18368.6	8.717
5.078	67.30	97.8971	18367.5	8.753
5.087	67.39	97.8915	18366.4	8.790
5.095	67.48	97.8858	18365.4	8.827
5.103	67.57	97.8802	18364.3	8.864
5.112	67.65	97.8746	18363.3	8.902
5.120	67.74	97.8690	18362.2	8.938
5.128	67.83	97.8634	18361.2	8.975
5.137	67.91	97.8578	18360.1	9.013
5.145	68.00	97.8523	18359.1	9.050
5.153	68.09	97.8467	18358.1	9.088
5.162	68.18	97.8413	18357	9.125
5.170	68.26	97.8358	18356	9.160
5.178	68.35	97.8303	18355	9.197
5.187	68.44	97.8247	18353.9	9.234
5.195	68.53	97.8193	18352.9	9.270
5.203	68.61	97.8138	18351.9	9.307
5.212	68.70	97.8083	18350.8	9.344
5.220	68.79	97.8028	18349.8	9.381
5.228	68.88	97.7973	18348.8	9.418
5.237	68.96	97.7918	18347.7	9.454
5.245	69.05	97.7864	18346.7	9.491
5.253	69.14	97.7809	18345.7	9.529
5.262	69.23	97.7755	18344.7	9.566
5.270	69.32	97.7701	18343.7	9.603
5.278	69.40	97.7647	18342.7	9.641
5.287	69.49	97.7594	18341.7	9.679
5.295	69.58	97.7540	18340.7	9.717
5.303	69.67	97.7487	18339.7	9.755
5.312	69.75	97.7433	18338.6	9.793
5.320	69.84	97.7380	18337.6	9.830
5.328	69.93	97.7326	18336.6	9.868
5.337	70.02	97.7272	18335.6	9.905
5.345	70.11	97.7218	18334.6	9.943
5.353	70.19	97.7164	18333.6	9.981
5.362	70.28	97.7110	18332.6	10.019
5.370	70.37	97.7056	18331.6	10.056
5.378	70.46	97.7001	18330.5	10.094
5.387	70.54	97.6947	18329.5	10.131
5.395	70.63	97.6893	18328.5	10.168
5.403	70.72	97.6838	18327.5	10.205
5.412	70.81	97.6784	18326.5	10.242
5.420	70.89	97.6730	18325.5	10.279
5.428	70.98	97.6676	18324.4	10.316
5.437	71.07	97.6622	18323.4	10.353
5.445	71.16	97.6568	18322.4	10.391
5.453	71.25	97.6514	18321.4	10.428
5.462	71.33	97.6461	18320.4	10.465
5.470	71.42	97.6408	18319.4	10.503
5.478	71.51	97.6354	18318.4	10.540
5.487	71.60	97.6301	18317.4	10.579
5.495	71.69	97.6249	18316.4	10.616
5.503	71.77	97.6196	18315.4	10.655
5.512	71.86	97.6143	18314.4	10.693
5.520	71.95	97.6091	18313.5	10.731
5.528	72.04	97.6038	18312.5	10.768
5.537	72.12	97.5985	18311.5	10.806
5.545	72.21	97.5933	18310.5	10.843
5.553	72.30	97.5881	18309.5	10.881
5.562	72.39	97.5828	18308.5	10.918
5.570	72.48	97.5777	18307.6	10.956
5.578	72.56	97.5725	18306.6	10.994
5.587	72.65	97.5673	18305.6	11.031
5.595	72.74	97.5621	18304.6	11.068
5.603	72.83	97.5569	18303.7	11.106
5.612	72.92	97.5517	18302.7	11.144
5.620	73.00	97.5465	18301.7	11.182
5.628	73.09	97.5413	18300.7	11.219
5.637	73.18	97.5361	18299.8	11.257
5.645	73.27	97.5309	18298.8	11.295
5.653	73.36	97.5257	18297.8	11.332
5.662	73.45	97.5205	18296.8	11.369
5.670	73.53	97.5153	18295.9	11.406
5.678	73.62	97.5101	18294.9	11.444
5.687	73.71	97.5049	18293.9	11.481
5.695	73.80	97.4998	18293	11.519
5.703	73.88	97.4946	18292	11.556
5.712	73.97	97.4895	18291	11.594
5.720	74.06	97.4843	18290.1	11.631
5.728	74.15	97.4792	18289.1	11.668
5.737	74.24	97.4741	18288.1	11.707
5.745	74.32	97.4689	18287.2	11.745
5.753	74.41	97.4638	18286.2	11.783
5.762	74.50	97.4586	18285.2	11.822
5.770	74.59	97.4535	18284.3	11.860
5.778	74.68	97.4484	18283.3	11.897
5.787	74.76	97.4433	18282.4	11.934
5.795	74.85	97.4382	18281.4	11.972
5.803	74.94	97.4331	18280.4	12.009
5.812	75.03	97.4280	18279.5	12.047
5.820	75.12	97.4229	18278.5	12.084
5.828	75.20	97.4179	18277.6	12.122
5.837	75.29	97.4128	18276.6	12.159
5.845	75.38	97.4077	18275.7	12.196
5.853	75.47	97.4026	18274.7	12.233
5.862	75.56	97.3976	18273.8	12.271
5.870	75.64	97.3925	18272.8	12.309
5.878	75.73	97.3874	18271.9	12.347
5.887	75.82	97.3824	18270.9	12.386
5.895	75.91	97.3773	18270	12.424
5.903	76.00	97.3723	18269	12.463
5.912	76.09	97.3672	18268.1	12.501
5.920	76.17	97.3622	18267.1	12.539
5.928	76.26	97.3571	18266.2	12.577
5.937	76.35	97.3521	18265.2	12.615
5.945	76.44	97.3471	18264.3	12.652
5.953	76.53	97.3421	18263.4	12.690
5.962	76.61	97.3371	18262.4	12.728
5.970	76.70	97.3321	18261.5	12.766
5.978	76.79	97.3271	18260.5	12.803
5.987	76.88	97.3221	18259.6	12.841
5.995	76.97	97.3171	18258.7	12.878
6.003	77.06	97.3121	18257.7	12.916
6.012	77.14	97.3072	18256.8	12.954
6.020	77.23	97.3022	18255.9	12.992
6.028	77.32	97.2973	18255	13.030
6.037	77.41	97.2923	18254	13.068
6.045	77.50	97.2874	18253.1	13.106
6.053	77.58	97.2825	18252.2	13.145
6.062	77.67	97.2776	18251.3	13.183
6.070	77.76	97.2727	18250.3	13.222
6.078	77.85	97.2678	18249.4	13.260
6.087	77.94	97.2629	18248.5	13.299
6.095	78.03	97.2580	18247.6	13.337
6.103	78.11	97.2532	18246.7	13.376
6.112	78.20	97.2483	18245.8	13.414
6.120	78.29	97.2434	18244.9	13.452
6.128	78.38	97.2386	18244	13.489
6.137	78.47	97.2338	18243	13.527
6.145	78.55	97.2289	18242.1	13.564
6.153	78.64	97.2241	18241.2	13.602
6.162	78.73	97.2193	18240.3	13.640
6.170	78.82	97.2145	18239.4	13.678
6.178	78.90	97.2097	18238.5	13.715
6.187	78.99	97.2050	18237.6	13.752
6.195	79.08	97.2002	18236.7	13.790
6.203	79.17	97.1954	18235.9	13.827
6.212	79.26	97.1907	18235	13.865
6.220	79.35	97.1860	18234.1	13.903
6.228	79.43	97.1813	18233.2	13.941
6.237	79.52	97.1765	18232.3	13.978
6.245	79.61	97.1719	18231.4	14.016
6.253	79.70	97.1672	18230.5	14.054
6.262	79.79	97.1625	18229.7	14.092
6.270	79.87	97.1578	18228.8	14.129
6.278	79.96	97.1532	18227.9	14.167
6.287	80.05	97.1485	18227	14.204
6.295	80.14	97.1438	18226.2	14.242
6.303	80.23	97.1392	18225.3	14.280
6.312	80.32	97.1346	18224.4	14.318
6.320	80.40	97.1300	18223.6	14.356
6.328	80.49	97.1253	18222.7	14.393
6.337	80.58	97.1207	18221.8	14.431
6.345	80.67	97.1161	18221	14.469
6.353	80.76	97.1116	18220.1	14.507
6.362	80.84	97.1070	18219.3	14.545
6.370	80.93	97.1024	18218.4	14.583
6.378	81.02	97.0979	18217.6	14.621
6.387	81.11	97.0934	18216.7	14.658
6.395	81.20	97.0889	18215.9	14.696
6.403	81.28	97.0844	18215	14.733
6.412	81.37	97.0799	18214.2	14.771
6.420	81.46	97.0754	18213.3	14.809
6.428	81.55	97.0709	18212.5	14.846
6.437	81.64	97.0665	18211.7	14.884
6.445	81.72	97.0620	18210.8	14.923
6.453	81.81	97.0576	18210	14.960
6.462	81.90	97.0531	18209.2	14.998
6.470	81.99	97.0487	18208.3	15.037
6.478	82.08	97.0443	18207.5	15.075
6.487	82.16	97.0399	18206.7	15.113
6.495	82.25	97.0355	18205.9	15.150
6.503	82.34	97.0312	18205	15.188
6.512	82.43	97.0268	18204.2	15.226
6.520	82.52	97.0225	18203.4	15.263
6.528	82.60	97.0181	18202.6	15.301
6.537	82.69	97.0138	18201.8	15.339
6.545	82.78	97.0095	18201	15.377
6.553	82.87	97.0052	18200.2	15.415
6.562	82.96	97.0009	18199.3	15.452
6.570	83.04	96.9966	18198.5	15.489
6.578	83.13	96.9923	18197.7	15.527
6.587	83.22	96.9881	18196.9	15.563
6.595	83.31	96.9838	18196.1	15.602
6.603	83.40	96.9796	18195.4	15.640
6.612	83.49	96.9754	18194.6	15.678
6.620	83.57	96.9711	18193.8	15.715
6.628	83.66	96.9669	18193	15.752
6.637	83.75	96.9627	18192.2	15.790
6.645	83.84	96.9586	18191.4	15.827
6.653	83.92	96.9544	18190.6	15.865
6.662	84.01	96.9502	18189.9	15.903
6.670	84.10	96.9461	18189.1	15.941
6.678	84.19	96.9419	18188.3	15.979
6.687	84.28	96.9378	18187.5	16.017
6.695	84.37	96.9337	18186.7	16.054
6.703	84.45	96.9296	18186	16.093
6.712	84.54	96.9255	18185.2	16.131
6.720	84.63	96.9214	18184.4	16.169
6.728	84.72	96.9174	18183.7	16.207
6.737	84.81	96.9133	18182.9	16.245
6.745	84.89	96.9093	18182.2	16.283
6.753	84.98	96.9053	18181.4	16.321
6.762	85.07	96.9012	18180.7	16.359
6.770	85.16	96.8972	18179.9	16.396
6.778	85.25	96.8932	18179.2	16.433
6.787	85.33	96.8893	18178.4	16.471
6.795	85.42	96.8853	18177.7	16.508
6.803	85.51	96.8813	18176.9	16.546
6.812	85.60	96.8774	18176.2	16.583
6.820	85.68	96.8735	18175.4	16.620
6.828	85.77	96.8696	18174.7	16.656
6.837	85.86	96.8657	18174	16.693
6.845	85.95	96.8618	18173.3	16.730
6.853	86.04	96.8579	18172.5	16.768
6.862	86.13	96.8540	18171.8	16.806
6.870	86.21	96.8502	18171.1	16.842
6.878	86.30	96.8464	18170.4	16.880
6.887	86.39	96.8425	18169.6	16.917
6.895	86.48	96.8387	18168.9	16.954
6.903	86.56	96.8349	18168.2	16.992
6.912	86.65	96.8311	18167.5	17.030
6.920	86.74	96.8274	18166.8	17.068
6.928	86.83	96.8236	18166.1	17.106
6.937	86.92	96.8198	18165.4	17.144
6.945	87.01	96.8161	18164.7	17.182
6.953	87.09	96.8124	18164	17.220
6.962	87.18	96.8086	18163.3	17.258
6.970	87.27	96.8049	18162.6	17.296
6.978	87.36	96.8013	18161.9	17.333
6.987	87.45	96.7976	18161.2	17.371
6.995	87.53	96.7939	18160.5	17.409
7.003	87.62	96.7903	18159.8	17.446
7.012	87.71	96.7866	18159.1	17.484
7.020	87.80	96.7830	18158.5	17.521
7.028	87.89	96.7794	18157.8	17.558
7.037	87.97	96.7758	18157.1	17.595
7.045	88.06	96.7722	18156.4	17.633
7.053	88.15	96.7686	18155.8	17.670
7.062	88.24	96.7650	18155.1	17.708
7.070	88.33	96.7615	18154.4	17.745
7.078	88.41	96.7579	18153.8	17.782
7.087	88.50	96.7544	18153.1	17.819
7.095	88.59	96.7509	18152.4	17.856
7.103	88.68	96.7473	18151.8	17.893
7.112	88.77	96.7439	18151.1	17.931
7.120	88.85	96.7404	18150.5	17.969
7.128	88.94	96.7369	18149.8	18.007
7.137	89.03	96.7334	18149.2	18.044
7.145	89.12	96.7300	18148.5	18.082
7.153	89.21	96.7265	18147.9	18.120
7.162	89.29	96.7231	18147.2	18.158
7.170	89.38	96.7197	18146.6	18.196
7.178	89.47	96.7163	18146	18.233
7.187	89.56	96.7129	18145.3	18.270
7.195	89.65	96.7096	18144.7	18.307
7.203	89.73	96.7062	18144.1	18.344
7.212	89.82	96.7029	18143.4	18.381
7.220	89.91	96.6995	18142.8	18.418
7.228	90.00	96.6962	18142.2	18.456
7.237	90.09	96.6929	18141.6	18.493
7.245	90.18	96.6896	18141	18.531
7.253	90.26	96.6863	18140.3	18.568
7.262	90.35	96.6831	18139.7	18.606
7.270	90.44	96.6798	18139.1	18.643
7.278	90.53	96.6766	18138.5	18.681
7.287	90.62	96.6733	18137.9	18.718
7.295	90.70	96.6701	18137.3	18.755
7.303	90.79	96.6669	18136.7	18.792
7.312	90.88	96.6637	18136.1	18.829
7.320	90.97	96.6605	18135.5	18.865
7.328	91.06	96.6574	18134.9	18.902
7.337	91.14	96.6542	18134.3	18.939
7.345	91.23	96.6511	18133.7	18.976
7.353	91.32	96.6480	18133.1	19.012
7.362	91.41	96.6449	18132.6	19.049
7.370	91.50	96.6418	18132	19.086
7.378	91.58	96.6387	18131.4	19.123
7.387	91.67	96.6356	18130.8	19.160
7.395	91.76	96.6325	18130.2	19.197
7.403	91.85	96.6295	18129.7	19.234
7.412	91.94	96.6265	18129.1	19.270
7.420	92.02	96.6234	18128.5	19.306
7.428	92.11	96.6204	18128	19.342
7.437	92.20	96.6174	18127.4	19.378
7.445	92.29	96.6144	18126.8	19.414
7.453	92.38	96.6115	18126.3	19.451
7.462	92.46	96.6085	18125.7	19.487
7.470	92.55	96.6055	18125.2	19.523
7.478	92.64	96.6026	18124.6	19.560
7.487	92.73	96.5997	18124.1	19.597
7.495	92.82	96.5967	18123.5	19.634
7.503	92.90	96.5938	18123	19.671
7.512	92.99	96.5909	18122.4	19.707
7.520	93.08	96.5881	18121.9	19.744
7.528	93.17	96.5852	18121.4	19.782
7.537	93.25	96.5824	18120.8	19.819
7.545	93.34	96.5795	18120.3	19.856
7.553	93.43	96.5767	18119.8	19.893
7.562	93.52	96.5739	18119.2	19.930
7.570	93.61	96.5711	18118.7	19.966
7.578	93.70	96.5683	18118.2	20.003
7.587	93.78	96.5656	18117.7	20.040
7.595	93.87	96.5628	18117.2	20.077
7.603	93.96	96.5601	18116.6	20.114
7.612	94.05	96.5573	18116.1	20.151
7.620	94.14	96.5546	18115.6	20.187
7.628	94.22	96.5519	18115.1	20.223
7.637	94.31	96.5492	18114.6	20.259
7.645	94.40	96.5465	18114.1	20.295
7.653	94.49	96.5438	18113.6	20.331
7.662	94.58	96.5412	18113.1	20.367
7.670	94.66	96.5385	18112.6	20.403
7.678	94.75	96.5359	18112.1	20.439
7.687	94.84	96.5332	18111.6	20.476
7.695	94.93	96.5306	18111.1	20.512
7.703	95.02	96.5280	18110.6	20.548
7.712	95.10	96.5254	18110.1	20.584
7.720	95.19	96.5228	18109.7	20.621
7.728	95.28	96.5203	18109.2	20.658
7.737	95.37	96.5177	18108.7	20.694
7.745	95.45	96.5152	18108.2	20.729
7.753	95.54	96.5126	18107.7	20.766
7.762	95.63	96.5101	18107.3	20.802
7.770	95.72	96.5076	18106.8	20.838
7.778	95.81	96.5051	18106.3	20.873
7.787	95.90	96.5026	18105.9	20.909
7.795	95.98	96.5001	18105.4	20.945
7.803	96.07	96.4977	18104.9	20.980
7.812	96.16	96.4952	18104.5	21.015
7.820	96.25	96.4928	18104	21.051
7.828	96.34	96.4903	18103.6	21.086
7.837	96.42	96.4879	18103.1	21.122
7.845	96.51	96.4855	18102.7	21.157
7.853	96.60	96.4831	18102.2	21.192
7.862	96.69	96.4807	18101.8	21.228
7.870	96.77	96.4784	18101.3	21.263
7.878	96.86	96.4760	18100.9	21.299
7.887	96.95	96.4737	18100.4	21.334
7.895	97.04	96.4713	18100	21.371
7.903	97.13	96.4690	18099.6	21.406
7.912	97.21	96.4667	18099.1	21.442
7.920	97.30	96.4644	18098.7	21.477
7.928	97.39	96.4621	18098.3	21.512
7.937	97.48	96.4599	18097.8	21.548
7.945	97.57	96.4576	18097.4	21.583
7.953	97.65	96.4554	18097	21.619
7.962	97.74	96.4531	18096.6	21.654
7.970	97.83	96.4509	18096.2	21.688
7.978	97.92	96.4487	18095.7	21.723
7.987	98.00	96.4465	18095.3	21.758
7.995	98.09	96.4443	18094.9	21.793
8.003	98.18	96.4421	18094.5	21.828
8.012	98.27	96.4399	18094.1	21.862
8.020	98.36	96.4378	18093.7	21.897
8.028	98.44	96.4356	18093.3	21.932
8.037	98.53	96.4335	18092.9	21.967
8.045	98.62	96.4313	18092.5	22.003
8.053	98.71	96.4292	18092.1	22.037
8.062	98.80	96.4271	18091.7	22.072
8.070	98.88	96.4250	18091.3	22.106
8.078	98.97	96.4229	18090.9	22.142
8.087	99.06	96.4209	18090.5	22.176
8.095	99.15	96.4188	18090.1	22.212
8.103	99.24	96.4167	18089.8	22.247
8.112	99.32	96.4147	18089.4	22.282
8.120	99.41	96.4127	18089	22.316
8.128	99.50	96.4107	18088.6	22.351
8.137	99.59	96.4087	18088.2	22.386
8.145	99.68	96.4067	18087.9	22.421
8.153	99.76	96.4047	18087.5	22.456
8.162	99.85	96.4027	18087.1	22.491
8.170	99.94	96.4007	18086.8	22.527
8.178	100.03	96.3988	18086.4	22.562
8.187	100.11	96.3969	18086	22.596
8.195	100.20	96.3949	18085.7	22.631
8.203	100.29	96.3930	18085.3	22.666
8.212	100.38	96.3911	18085	22.700
8.220	100.46	96.3893	18084.6	22.735
8.228	100.55	96.3874	18084.2	22.770
8.237	100.64	96.3855	18083.9	22.805
8.245	100.73	96.3836	18083.5	22.840
8.253	100.82	96.3818	18083.2	22.874
8.262	100.90	96.3799	18082.9	22.909
8.270	100.99	96.3781	18082.5	22.944
8.278	101.08	96.3763	18082.2	22.978
8.287	101.17	96.3745	18081.8	23.013
8.295	101.26	96.3727	18081.5	23.048
8.303	101.34	96.3709	18081.1	23.082
8.312	101.43	96.3691	18080.8	23.116
8.320	101.52	96.3673	18080.5	23.150
8.328	101.61	96.3656	18080.2	23.185
8.337	101.69	96.3638	18079.8	23.219
8.345	101.78	96.3621	18079.5	23.254
8.353	101.87	96.3604	18079.2	23.288
8.362	101.96	96.3587	18078.9	23.321
8.370	102.05	96.3569	18078.5	23.355
8.378	102.13	96.3553	18078.2	23.389
8.387	102.22	96.3536	18077.9	23.423
8.395	102.31	96.3519	18077.6	23.458
8.403	102.40	96.3502	18077.3	23.492
8.412	102.48	96.3486	18077	23.526
8.420	102.57	96.3469	18076.7	23.560
8.428	102.66	96.3453	18076.4	23.593
8.437	102.75	96.3437	18076	23.627
8.445	102.83	96.3421	18075.7	23.661
8.453	102.92	96.3405	18075.4	23.695
8.462	103.01	96.3389	18075.1	23.729
8.470	103.10	96.3373	18074.8	23.763
8.478	103.19	96.3357	18074.6	23.797
8.487	103.27	96.3342	18074.3	23.830
8.495	103.36	96.3326	18074	23.864
8.503	103.45	96.3310	18073.7	23.898
8.512	103.54	96.3295	18073.4	23.931
8.520	103.63	96.3280	18073.1	23.965
8.528	103.71	96.3265	18072.8	23.998
8.537	103.80	96.3250	18072.5	24.031
8.545	103.89	96.3235	18072.3	24.065
8.553	103.98	96.3220	18072	24.098
8.562	104.06	96.3205	18071.7	24.131
8.570	104.15	96.3191	18071.4	24.165
8.578	104.24	96.3176	18071.2	24.198
8.587	104.33	96.3162	18070.9	24.232
8.595	104.42	96.3147	18070.6	24.266
8.603	104.50	96.3133	18070.3	24.300
8.612	104.59	96.3119	18070.1	24.333
8.620	104.68	96.3105	18069.8	24.367
8.628	104.77	96.3091	18069.6	24.400
8.637	104.85	96.3077	18069.3	24.433
8.645	104.94	96.3063	18069	24.466
8.653	105.03	96.3050	18068.8	24.498
8.662	105.12	96.3036	18068.5	24.531
8.670	105.20	96.3023	18068.3	24.564
8.678	105.29	96.3009	18068	24.596
8.687	105.38	96.2996	18067.8	24.629
8.695	105.47	96.2983	18067.5	24.661
8.703	105.55	96.2970	18067.3	24.694
8.712	105.64	96.2957	18067	24.726
8.720	105.73	96.2944	18066.8	24.758
8.728	105.82	96.2931	18066.6	24.790
8.737	105.90	96.2918	18066.3	24.822
8.745	105.99	96.2906	18066.1	24.854
8.753	106.08	96.2893	18065.8	24.887
8.762	106.17	96.2881	18065.6	24.919
8.770	106.25	96.2868	18065.4	24.951
8.778	106.34	96.2856	18065.2	24.984
8.787	106.43	96.2844	18064.9	25.017
8.795	106.52	96.2832	18064.7	25.050
8.803	106.60	96.2820	18064.5	25.082
8.812	106.69	96.2808	18064.3	25.115
8.820	106.78	96.2796	18064	25.148
8.828	106.87	96.2785	18063.8	25.181
8.837	106.96	96.2773	18063.6	25.214
8.845	107.04	96.2762	18063.4	25.246
8.853	107.13	96.2750	18063.2	25.279
8.862	107.22	96.2739	18063	25.311
8.870	107.31	96.2728	18062.7	25.343
8.878	107.39	96.2716	18062.5	25.375
8.887	107.48	96.2705	18062.3	25.408
8.895	107.57	96.2694	18062.1	25.440
8.903	107.66	96.2683	18061.9	25.471
8.912	107.74	96.2672	18061.7	25.503
8.920	107.83	96.2662	18061.5	25.536
8.928	107.92	96.2651	18061.3	25.568
8.937	108.01	96.2640	18061.1	25.599
8.945	108.09	96.2630	18060.9	25.631
8.953	108.18	96.2619	18060.7	25.663
8.962	108.27	96.2609	18060.5	25.694
8.970	108.36	96.2598	18060.3	25.726
8.978	108.44	96.2588	18060.1	25.758
8.987	108.53	96.2578	18059.9	25.790
8.995	108.62	96.2568	18059.8	25.821
9.003	108.71	96.2558	18059.6	25.852
9.012	108.79	96.2549	18059.4	25.883
9.020	108.88	96.2539	18059.2	25.915
9.028	108.97	96.2529	18059	25.946
9.037	109.06	96.2520	18058.8	25.978
9.045	109.14	96.2510	18058.7	26.010
9.053	109.23	96.2501	18058.5	26.041
9.062	109.32	96.2491	18058.3	26.073
9.070	109.41	96.2482	18058.1	26.104
9.078	109.49	96.2473	18058	26.136

[step]
Isothermal 30.0 min
Time	Temperature	Weight	Weight	Heat Flow
min	°C	%	µg	mW
9.087	109.58	96.2463	18057.8	26.168
9.112	109.84	96.2436	18057.3	26.263
9.137	110.11	96.2410	18056.8	26.356
9.162	110.37	96.2384	18056.3	26.448
9.187	110.63	96.2358	18055.8	26.538
9.212	110.88	96.2334	18055.3	26.626
9.237	111.14	96.2310	18054.9	26.713
9.262	111.39	96.2286	18054.5	26.799
9.287	111.64	96.2263	18054	26.884
9.312	111.88	96.2241	18053.6	26.967
9.337	112.12	96.2220	18053.2	27.047
9.362	112.35	96.2200	18052.8	27.123
9.387	112.58	96.2180	18052.5	27.194
9.412	112.80	96.2162	18052.1	27.262
9.437	113.01	96.2143	18051.8	27.325
9.462	113.22	96.2126	18051.5	27.386
9.487	113.42	96.2109	18051.1	27.444
9.512	113.62	96.2093	18050.8	27.498
9.537	113.80	96.2078	18050.6	27.547
9.562	113.98	96.2063	18050.3	27.592
9.587	114.16	96.2050	18050	27.630
9.612	114.32	96.2036	18049.8	27.663
9.637	114.48	96.2024	18049.5	27.691
9.662	114.63	96.2012	18049.3	27.716
9.687	114.77	96.2001	18049.1	27.735
9.712	114.90	96.1991	18048.9	27.749
9.737	115.02	96.1981	18048.7	27.757
9.762	115.14	96.1972	18048.6	27.760
9.787	115.25	96.1963	18048.4	27.760
9.812	115.35	96.1953	18048.2	27.758
9.837	115.44	96.1944	18048	27.752
9.862	115.52	96.1935	18047.9	27.743
9.887	115.59	96.1926	18047.7	27.727
9.912	115.66	96.1918	18047.5	27.703
9.937	115.72	96.1911	18047.4	27.670
9.962	115.77	96.1904	18047.3	27.631
9.987	115.81	96.1898	18047.2	27.588
10.012	115.84	96.1892	18047.1	27.545
10.037	115.87	96.1886	18047	27.500
10.062	115.89	96.1881	18046.9	27.451
10.087	115.91	96.1877	18046.8	27.398
10.112	115.91	96.1872	18046.7	27.340
10.137	115.92	96.1868	18046.6	27.281
10.162	115.91	96.1864	18046.5	27.220
10.187	115.90	96.1860	18046.5	27.157
10.212	115.89	96.1857	18046.4	27.091
10.237	115.87	96.1854	18046.3	27.024
10.262	115.84	96.1851	18046.3	26.954
10.287	115.81	96.1849	18046.2	26.882
10.312	115.78	96.1847	18046.2	26.810
10.337	115.75	96.1846	18046.2	26.737
10.362	115.71	96.1845	18046.2	26.664
[...]
224.662	951.37	-0.1176	-22.0609	102.766
224.687	951.37	-0.1176	-22.0652	102.767
224.712	951.37	-0.1176	-22.0689	102.768
224.737	951.37	-0.1176	-22.0733	102.768
224.762	951.37	-0.1177	-22.0789	102.767
224.787	951.37	-0.1177	-22.0831	102.768
224.812	951.37	-0.1177	-22.0864	102.769
224.837	951.37	-0.1177	-22.0906	102.769
224.862	951.37	-0.1178	-22.0964	102.770
224.887	951.37	-0.1178	-22.1005	102.770
224.912	951.37	-0.1178	-22.1037	102.771
224.937	951.37	-0.1178	-22.1075	102.772
224.962	951.37	-0.1179	-22.1122	102.771
224.987	951.37	-0.1179	-22.1188	102.770
225.012	951.37	-0.1179	-22.1264	102.769
225.037	951.37	-0.1180	-22.1333	102.769
225.062	951.37	-0.1180	-22.1381	102.769
225.087	951.37	-0.1180	-22.1416	102.769
225.112	951.37	-0.1180	-22.1455	102.770
225.137	951.37	-0.1181	-22.1493	102.772
225.162	951.37	-0.1181	-22.1539	102.774
225.187	951.37	-0.1181	-22.1570	102.776
225.212	951.37	-0.1181	-22.1611	102.775
225.237	951.37	-0.1181	-22.1661	102.775
225.262	951.37	-0.1182	-22.1691	102.774
225.287	951.37	-0.1182	-22.1707	102.773
225.312	951.37	-0.1182	-22.1708	102.773
225.337	951.37	-0.1182	-22.1727	102.774
225.362	951.37	-0.1182	-22.1770	102.775
225.387	951.37	-0.1182	-22.1828	102.776
225.412	951.37	-0.1183	-22.1875	102.777
225.437	951.37	-0.1183	-22.1900	102.777
225.462	951.37	-0.1183	-22.1923	102.777
225.487	951.37	-0.1183	-22.1965	102.777
225.512	951.37	-0.1183	-22.2024	102.776
225.537	951.37	-0.1184	-22.2097	102.775
225.562	951.37	-0.1184	-22.2174	102.774
225.587	951.37	-0.1185	-22.2248	102.772
225.612	951.37	-0.1185	-22.2311	102.771
225.637	951.37	-0.1185	-22.2364	102.770
225.662	951.37	-0.1185	-22.2400	102.769
225.687	951.37	-0.1186	-22.2426	102.769
225.712	951.37	-0.1186	-22.2440	102.771
225.737	951.37	-0.1186	-22.2451	102.772
225.762	951.37	-0.1186	-22.2453	102.773
225.787	951.37	-0.1186	-22.2459	102.773
225.812	951.37	-0.1186	-22.2472	102.771
225.837	951.37	-0.1186	-22.2521	102.770
225.862	951.37	-0.1186	-22.2595	102.769
225.887	951.37	-0.1187	-22.2687	102.769
225.912	951.37	-0.1187	-22.2757	102.769
225.937	951.37	-0.1187	-22.2792	102.770
225.962	951.37	-0.1188	-22.2819	102.771
225.987	951.37	-0.1188	-22.2837	102.772
226.012	951.37	-0.1188	-22.2861	102.773
226.037	951.37	-0.1188	-22.2890	102.774
226.062	951.37	-0.1188	-22.2906	102.775
226.087	951.37	-0.1188	-22.2921	102.774
226.112	951.37	-0.1188	-22.2944	102.774
226.137	951.37	-0.1189	-22.2994	102.774
226.162	951.37	-0.1189	-22.3048	102.774
226.187	951.37	-0.1189	-22.3106	102.775
226.212	951.37	-0.1189	-22.3153	102.775
226.237	951.37	-0.1190	-22.3204	102.775
226.262	951.37	-0.1190	-22.3274	102.776
226.287	951.37	-0.1190	-22.3335	102.776
226.312	951.37	-0.1191	-22.3398	102.777
226.337	951.37	-0.1191	-22.3449	102.776
226.362	951.37	-0.1191	-22.3504	102.774
226.387	951.37	-0.1192	-22.3565	102.773
226.412	951.37	-0.1192	-22.3637	102.770
226.437	951.37	-0.1192	-22.3706	102.766
226.462	951.37	-0.1193	-22.3768	102.762
226.487	951.37	-0.1193	-22.3822	102.760
226.512	951.37	-0.1193	-22.3888	102.758
226.537	951.37	-0.1194	-22.3959	102.757
226.562	951.37	-0.1194	-22.4007	102.755
226.587	951.37	-0.1194	-22.4037	102.754
226.612	951.37	-0.1194	-22.4051	102.753
226.637	951.37	-0.1194	-22.4048	102.751
226.662	951.37	-0.1194	-22.4050	102.748
226.687	951.37	-0.1194	-22.4059	102.745
226.712	951.37	-0.1194	-22.4102	102.744
226.737	951.37	-0.1195	-22.4181	102.744
226.762	951.37	-0.1195	-22.4252	102.744
226.787	951.37	-0.1195	-22.4298	102.745
226.812	951.37	-0.1196	-22.4322	102.746
226.837	951.37	-0.1196	-22.4350	102.747
226.862	951.37	-0.1196	-22.4389	102.749
226.887	951.37	-0.1196	-22.4430	102.750
226.912	951.37	-0.1196	-22.4486	102.749
226.937	951.37	-0.1197	-22.4534	102.748
226.962	951.37	-0.1197	-22.4595	102.747
226.987	951.37	-0.1197	-22.4649	102.747
227.012	951.37	-0.1198	-22.4725	102.746
227.037	951.37	-0.1198	-22.4804	102.746
227.062	951.37	-0.1199	-22.4875	102.746
227.087	951.37	-0.1199	-22.4932	102.745
227.112	951.37	-0.1199	-22.4982	102.744
227.137	951.37	-0.1199	-22.5049	102.743
227.162	951.37	-0.1200	-22.5128	102.743
227.187	951.37	-0.1200	-22.5213	102.744
227.212	951.37	-0.1201	-22.5292	102.746
227.237	951.37	-0.1201	-22.5335	102.748
227.262	951.37	-0.1201	-22.5375	102.749
227.287	951.37	-0.1201	-22.5404	102.750
227.312	951.37	-0.1202	-22.5445	102.751
227.337	951.37	-0.1202	-22.5486	102.752
227.362	951.37	-0.1202	-22.5529	102.752
227.387	951.37	-0.1202	-22.5573	102.753
227.412	951.37	-0.1203	-22.5616	102.753
227.437	951.37	-0.1203	-22.5644	102.753
227.462	951.37	-0.1203	-22.5692	102.753
227.487	951.37	-0.1203	-22.5764	102.752
227.512	951.37	-0.1204	-22.5850	102.752
227.537	951.37	-0.1204	-22.5900	102.751
227.562	951.37	-0.1204	-22.5917	102.750
227.587	951.37	-0.1204	-22.5920	102.750
227.612	951.37	-0.1204	-22.5924	102.749
227.637	951.37	-0.1204	-22.5914	102.748
227.662	951.37	-0.1204	-22.5899	102.747
227.687	951.37	-0.1204	-22.5871	102.746
227.712	951.37	-0.1204	-22.5872	102.745
227.737	951.37	-0.1204	-22.5871	102.744
227.762	951.37	-0.1204	-22.5877	102.744
227.787	951.37	-0.1204	-22.5901	102.744
227.812	951.37	-0.1204	-22.5922	102.744
227.837	951.37	-0.1204	-22.5945	102.744
227.862	951.37	-0.1204	-22.5960	102.743
227.887	951.37	-0.1204	-22.5975	102.744
227.912	951.37	-0.1205	-22.5990	102.745
227.937	951.37	-0.1205	-22.6004	102.745
227.962	951.37	-0.1205	-22.6023	102.745
227.987	951.37	-0.1205	-22.6039	102.744
228.012	951.37	-0.1205	-22.6062	102.743
228.037	951.37	-0.1205	-22.6091	102.742
228.062	951.37	-0.1205	-22.6125	102.742
228.087	951.37	-0.1205	-22.6173	102.741
228.112	951.37	-0.1206	-22.6212	102.742
228.137	951.37	-0.1206	-22.6256	102.742
228.162	951.37	-0.1206	-22.6294	102.743
228.187	951.37	-0.1206	-22.6332	102.743
228.212	951.37	-0.1206	-22.6361	102.742
228.237	951.37	-0.1207	-22.6370	102.740
228.262	951.37	-0.1207	-22.6379	102.740
228.287	951.37	-0.1207	-22.6381	102.740
228.312	951.37	-0.1207	-22.6401	102.742
228.337	951.37	-0.1207	-22.6418	102.744
228.362	951.37	-0.1207	-22.6436	102.746
228.387	951.37	-0.1207	-22.6464	102.748
228.412	951.37	-0.1207	-22.6499	102.748
228.437	951.37	-0.1207	-22.6550	102.748
228.462	951.37	-0.1208	-22.6614	102.747
228.487	951.37	-0.1208	-22.6704	102.746
228.512	951.37	-0.1209	-22.6845	102.746
228.537	951.37	-0.1210	-22.6988	102.744
228.562	951.37	-0.1211	-22.7120	102.741
228.587	951.37	-0.1211	-22.7192	102.738
228.612	951.37	-0.1211	-22.7228	102.736
228.637	951.37	-0.1211	-22.7277	102.737
228.662	951.37	-0.1212	-22.7324	102.736
228.687	951.37	-0.1212	-22.7387	102.736
228.712	951.37	-0.1212	-22.7453	102.736
228.737	951.37	-0.1213	-22.7509	102.737
228.762	951.37	-0.1213	-22.7547	102.740
228.787	951.37	-0.1213	-22.7571	102.741
228.812	951.37	-0.1213	-22.7586	102.740
228.837	951.37	-0.1213	-22.7625	102.739
228.862	951.37	-0.1213	-22.7666	102.740
228.887	951.37	-0.1214	-22.7715	102.742
228.912	951.37	-0.1214	-22.7746	102.745
228.937	951.37	-0.1214	-22.7766	102.746
228.962	951.37	-0.1214	-22.7800	102.747
228.987	951.37	-0.1214	-22.7823	102.746
229.012	951.37	-0.1214	-22.7823	102.745
229.037	951.37	-0.1214	-22.7808	102.744
229.062	951.37	-0.1214	-22.7805	102.743
229.087	951.37	-0.1214	-22.7832	102.744
229.112	951.37	-0.1215	-22.7874	102.745
229.137	951.37	-0.1215	-22.7922	102.745
229.162	951.37	-0.1215	-22.7967	102.745
229.187	951.37	-0.1215	-22.8001	102.745
229.212	951.37	-0.1215	-22.8017	102.747
229.237	951.37	-0.1215	-22.8024	102.749
229.262	951.37	-0.1215	-22.8046	102.750
229.287	951.37	-0.1216	-22.8101	102.751
229.312	951.37	-0.1216	-22.8155	102.752
229.337	951.37	-0.1216	-22.8215	102.752
229.362	951.37	-0.1216	-22.8235	102.753
229.387	951.37	-0.1217	-22.8244	102.753
229.412	951.37	-0.1217	-22.8248	102.753
229.437	951.37	-0.1217	-22.8280	102.753
229.462	951.37	-0.1217	-22.8338	102.752
229.487	951.37	-0.1217	-22.8398	102.752
229.512	951.37	-0.1218	-22.8457	102.751
229.537	951.37	-0.1218	-22.8515	102.751
229.562	951.37	-0.1218	-22.8593	102.750
229.587	951.37	-0.1219	-22.8676	102.749
229.612	951.37	-0.1219	-22.8759	102.748
229.637	951.37	-0.1220	-22.8831	102.747
229.662	951.37	-0.1220	-22.8882	102.747
229.687	951.37	-0.1220	-22.8909	102.745
229.712	951.37	-0.1220	-22.8935	102.742
229.737	951.37	-0.1220	-22.8954	102.742
229.762	951.37	-0.1220	-22.8982	102.743
229.787	951.37	-0.1220	-22.8979	102.747
229.812	951.37	-0.1220	-22.8978	102.749
229.837	951.37	-0.1220	-22.8979	102.749
229.862	951.37	-0.1221	-22.8992	102.749
229.887	951.37	-0.1221	-22.9001	102.749
229.912	951.37	-0.1220	-22.8987	102.751
229.937	951.37	-0.1220	-22.8960	102.753
229.962	951.37	-0.1220	-22.8955	102.755
229.987	951.37	-0.1220	-22.8983	102.757
230.012	951.37	-0.1221	-22.9051	102.759
230.037	951.37	-0.1221	-22.9132	102.760
230.062	951.37	-0.1222	-22.9213	102.761
230.087	951.37	-0.1222	-22.9291	102.761
230.112	951.37	-0.1223	-22.9368	102.761
230.137	951.37	-0.1223	-22.9447	102.762
230.162	951.37	-0.1223	-22.9494	102.763
230.187	951.37	-0.1223	-22.9525	102.764
230.212	951.37	-0.1223	-22.9533	102.764
230.237	951.37	-0.1223	-22.9548	102.763
230.262	951.37	-0.1224	-22.9579	102.761
230.287	951.37	-0.1224	-22.9617	102.759
230.312	951.37	-0.1224	-22.9649	102.758
230.337	951.37	-0.1224	-22.9663	102.758
230.362	951.37	-0.1224	-22.9672	102.758
230.387	951.37	-0.1224	-22.9673	102.757
230.412	951.37	-0.1224	-22.9682	102.757
230.437	951.37	-0.1224	-22.9674	102.758
230.462	951.37	-0.1224	-22.9685	102.759
230.487	951.37	-0.1224	-22.9705	102.760
230.512	951.37	-0.1224	-22.9739	102.759
230.537	951.37	-0.1225	-22.9787	102.756
230.562	951.37	-0.1225	-22.9841	102.753
230.587	951.37	-0.1225	-22.9892	102.750
230.612	951.37	-0.1225	-22.9918	102.750
230.637	951.37	-0.1226	-22.9951	102.751
230.662	951.37	-0.1226	-22.9973	102.752
230.687	951.37	-0.1226	-23.0009	102.753
230.712	951.37	-0.1226	-23.0033	102.755
230.737	951.37	-0.1226	-23.0065	102.755
230.762	951.37	-0.1226	-23.0097	102.754
230.787	951.37	-0.1227	-23.0126	102.753
230.812	951.37	-0.1227	-23.0143	102.751
230.837	951.37	-0.1227	-23.0143	102.749
230.862	951.37	-0.1227	-23.0159	102.748
230.887	951.37	-0.1227	-23.0183	102.746
230.912	951.37	-0.1227	-23.0216	102.746
230.937	951.37	-0.1227	-23.0242	102.745
230.962	951.37	-0.1227	-23.0273	102.745
230.987	951.37	-0.1228	-23.0331	102.745
231.012	951.37	-0.1228	-23.0384	102.745
231.037	951.37	-0.1228	-23.0441	102.744
231.062	951.37	-0.1228	-23.0472	102.743
231.087	951.37	-0.1229	-23.0511	102.741
231.112	951.37	-0.1229	-23.0570	102.739
231.137	951.37	-0.1229	-23.0653	102.738
231.162	951.37	-0.1230	-23.0747	102.738
231.187	951.37	-0.1230	-23.0824	102.738
231.212	951.37	-0.1231	-23.0890	102.739
231.237	951.37	-0.1231	-23.0943	102.740
231.262	951.37	-0.1231	-23.0990	102.739
231.287	951.37	-0.1231	-23.1023	102.738
231.312	951.37	-0.1231	-23.1049	102.736
231.337	951.37	-0.1232	-23.1065	102.734
231.362	951.37	-0.1232	-23.1095	102.732
231.387	951.37	-0.1232	-23.1126	102.731
231.412	951.37	-0.1232	-23.1161	102.730
231.437	951.37	-0.1232	-23.1187	102.729
231.462	951.37	-0.1232	-23.1201	102.728
231.487	951.37	-0.1232	-23.1213	102.727
231.512	951.37	-0.1232	-23.1238	102.727
231.537	951.37	-0.1233	-23.1276	102.727
231.562	951.37	-0.1233	-23.1316	102.728
231.587	951.37	-0.1233	-23.1351	102.729
231.612	951.37	-0.1233	-23.1389	102.730
231.637	951.37	-0.1233	-23.1428	102.732
231.662	951.37	-0.1234	-23.1469	102.733
231.687	951.37	-0.1234	-23.1491	102.734
231.712	951.37	-0.1234	-23.1504	102.734
231.737	951.37	-0.1234	-23.1504	102.734
231.762	951.37	-0.1234	-23.1508	102.734
231.787	951.37	-0.1234	-23.1504	102.735
231.812	951.37	-0.1234	-23.1528	102.737
231.837	951.37	-0.1234	-23.1565	102.740
231.862	951.37	-0.1234	-23.1615	102.743
231.887	951.37	-0.1235	-23.1688	102.744
231.912	951.37	-0.1235	-23.1762	102.744
231.937	951.37	-0.1236	-23.1854	102.743
231.962	951.37	-0.1236	-23.1936	102.742
231.987	951.37	-0.1237	-23.2001	102.741
232.012	951.37	-0.1237	-23.2083	102.741
232.037	951.37	-0.1237	-23.2147	102.741
232.062	951.37	-0.1238	-23.2189	102.740
232.087	951.37	-0.1238	-23.2197	102.739
232.112	951.37	-0.1238	-23.2197	102.739
232.137	951.37	-0.1238	-23.2243	102.739
232.162	951.37	-0.1238	-23.2302	102.739
232.187	951.37	-0.1239	-23.2379	102.740
232.212	951.37	-0.1239	-23.2438	102.741
232.237	951.37	-0.1239	-23.2478	102.740
232.262	951.37	-0.1239	-23.2498	102.739
232.287	951.37	-0.1239	-23.2488	102.739
232.312	951.37	-0.1239	-23.2476	102.739
232.337	951.37	-0.1239	-23.2440	102.739
232.362	951.37	-0.1239	-23.2407	102.739
232.387	951.37	-0.1239	-23.2392	102.738
232.412	951.37	-0.1239	-23.2394	102.737
232.437	951.37	-0.1239	-23.2390	102.738
232.462	951.37	-0.1239	-23.2394	102.739
232.487	951.37	-0.1239	-23.2398	102.739
232.512	951.37	-0.1239	-23.2414	102.739
232.537	951.37	-0.1239	-23.2419	102.739
232.562	951.37	-0.1239	-23.2412	102.738
232.587	951.37	-0.1239	-23.2418	102.738
232.612	951.37	-0.1239	-23.2459	102.738
232.637	951.37	-0.1239	-23.2541	102.739
232.662	951.37	-0.1240	-23.2627	102.740
232.687	951.37	-0.1240	-23.2698	102.741
232.712	951.37	-0.1241	-23.2753	102.742
232.737	951.37	-0.1241	-23.2789	102.742
232.762	951.37	-0.1241	-23.2816	102.742
232.787	951.37	-0.1241	-23.2828	102.742
232.812	951.37	-0.1241	-23.2837	102.740
232.837	951.37	-0.1241	-23.2872	102.739
232.862	951.37	-0.1241	-23.2911	102.738
232.887	951.37	-0.1242	-23.2966	102.738
232.912	951.37	-0.1242	-23.3014	102.738
232.937	951.37	-0.1242	-23.3085	102.737
232.962	951.37	-0.1243	-23.3149	102.736
232.987	951.37	-0.1243	-23.3213	102.735
233.012	951.37	-0.1243	-23.3253	102.735
233.037	951.37	-0.1243	-23.3287	102.735
233.062	951.37	-0.1244	-23.3357	102.735
233.087	951.37	-0.1244	-23.3456	102.734
233.112	951.37	-0.1245	-23.3553	102.733
233.137	951.37	-0.1245	-23.3625	102.732
233.162	951.37	-0.1245	-23.3657	102.731
233.187	951.37	-0.1246	-23.3688	102.731
233.212	951.37	-0.1246	-23.3708	102.731
233.237	951.37	-0.1246	-23.3702	102.731
233.262	951.37	-0.1246	-23.3689	102.730
233.287	951.37	-0.1246	-23.3696	102.730
233.312	951.37	-0.1246	-23.3734	102.730
233.337	951.37	-0.1246	-23.3793	102.731
233.362	951.37	-0.1246	-23.3832	102.731
233.387	951.37	-0.1246	-23.3860	102.731
233.412	951.37	-0.1247	-23.3880	102.730
233.437	951.37	-0.1247	-23.3917	102.728
233.462	951.37	-0.1247	-23.3980	102.727
233.487	951.37	-0.1247	-23.4036	102.727
233.512	951.37	-0.1248	-23.4058	102.726
233.537	951.37	-0.1248	-23.4070	102.726
233.562	951.37	-0.1248	-23.4078	102.725
233.587	951.37	-0.1248	-23.4108	102.724
233.612	951.37	-0.1248	-23.4142	102.723
233.637	951.37	-0.1248	-23.4178	102.723
233.662	951.37	-0.1248	-23.4218	102.723
233.687	951.37	-0.1249	-23.4280	102.723
233.712	951.37	-0.1249	-23.4351	102.723
233.737	951.37	-0.1249	-23.4402	102.722
233.762	951.37	-0.1250	-23.4432	102.721
233.787	951.37	-0.1250	-23.4457	102.720
233.812	951.37	-0.1250	-23.4489	102.720
233.837	951.37	-0.1250	-23.4509	102.719
233.862	951.37	-0.1250	-23.4532	102.719
233.887	951.37	-0.1250	-23.4570	102.718
233.912	951.37	-0.1250	-23.4600	102.717
233.937	951.37	-0.1251	-23.4632	102.715
233.962	951.37	-0.1251	-23.4645	102.713
233.987	951.37	-0.1251	-23.4658	102.712
234.012	951.37	-0.1251	-23.4686	102.711
234.037	951.37	-0.1251	-23.4694	102.711
234.062	951.37	-0.1251	-23.4720	102.711
234.087	951.37	-0.1251	-23.4744	102.711
234.112	951.37	-0.1251	-23.4793	102.710
234.137	951.37	-0.1252	-23.4822	102.710
234.162	951.37	-0.1252	-23.4844	102.709
234.187	951.37	-0.1252	-23.4866	102.709
234.212	951.37	-0.1252	-23.4885	102.708
234.237	951.37	-0.1252	-23.4912	102.707
234.262	951.37	-0.1252	-23.4918	102.707
234.287	951.37	-0.1252	-23.4926	102.707
234.312	951.37	-0.1252	-23.4944	102.708
234.337	951.37	-0.1252	-23.4974	102.708
234.362	951.37	-0.1253	-23.5019	102.707
234.387	951.37	-0.1253	-23.5054	102.706
234.412	951.37	-0.1253	-23.5097	102.705
234.437	951.37	-0.1253	-23.5131	102.705
234.462	951.37	-0.1253	-23.5179	102.704
234.487	951.37	-0.1254	-23.5242	102.704
234.512	951.37	-0.1254	-23.5302	102.703
234.537	951.37	-0.1254	-23.5353	102.703
234.562	951.37	-0.1255	-23.5408	102.702
234.587	951.37	-0.1255	-23.5441	102.701
234.612	951.37	-0.1255	-23.5479	102.699
234.637	951.37	-0.1255	-23.5489	102.699
234.662	951.37	-0.1255	-23.5524	102.699
234.687	951.37	-0.1256	-23.5567	102.701
234.712	951.37	-0.1256	-23.5650	102.703
234.737	951.37	-0.1256	-23.5709	102.705
234.762	951.37	-0.1257	-23.5757	102.705
234.787	951.37	-0.1257	-23.5763	102.703
234.812	951.37	-0.1257	-23.5751	102.701
234.837	951.37	-0.1256	-23.5738	102.698
234.862	951.37	-0.1256	-23.5743	102.694
234.887	951.37	-0.1257	-23.5745	102.690
234.912	951.37	-0.1257	-23.5774	102.687
234.937	951.37	-0.1257	-23.5780	102.685
234.962	951.37	-0.1257	-23.5819	102.683
234.987	951.37	-0.1257	-23.5854	102.682
235.012	951.37	-0.1257	-23.5904	102.682
235.037	951.37	-0.1258	-23.5956	102.682
235.062	951.37	-0.1258	-23.5976	102.682
235.087	951.37	-0.1258	-23.5999	102.681
235.112	951.37	-0.1258	-23.6017	102.680
235.137	951.37	-0.1258	-23.6071	102.679
235.162	951.37	-0.1259	-23.6133	102.678
235.187	951.37	-0.1259	-23.6200	102.676
235.212	951.37	-0.1259	-23.6269	102.675
235.237	951.37	-0.1260	-23.6326	102.675
235.262	951.37	-0.1260	-23.6364	102.675
235.287	951.37	-0.1260	-23.6364	102.676
235.312	951.37	-0.1260	-23.6349	102.676
235.337	951.37	-0.1260	-23.6348	102.676
235.362	951.37	-0.1260	-23.6353	102.676
235.387	951.37	-0.1260	-23.6341	102.675
235.412	951.37	-0.1260	-23.6323	102.675
235.437	951.37	-0.1259	-23.6299	102.675
235.462	951.37	-0.1260	-23.6315	102.676
235.487	951.37	-0.1260	-23.6353	102.677
235.512	951.37	-0.1260	-23.6388	102.678
235.537	951.37	-0.1260	-23.6403	102.678
235.562	951.37	-0.1260	-23.6430	102.678
235.587	951.37	-0.1260	-23.6480	102.678
235.612	951.37	-0.1261	-23.6551	102.678
235.637	951.37	-0.1261	-23.6615	102.678
235.662	951.37	-0.1261	-23.6651	102.678
235.687	951.37	-0.1262	-23.6698	102.678
235.712	951.37	-0.1262	-23.6739	102.679
235.737	951.37	-0.1262	-23.6780	102.679
235.762	951.37	-0.1262	-23.6786	102.678
235.787	951.37	-0.1262	-23.6778	102.677
235.812	951.37	-0.1262	-23.6776	102.677
235.837	951.37	-0.1262	-23.6786	102.678
235.862	951.37	-0.1262	-23.6800	102.678
235.887	951.37	-0.1262	-23.6810	102.678
235.912	951.37	-0.1262	-23.6809	102.679
235.937	951.37	-0.1262	-23.6812	102.679
235.962	951.37	-0.1262	-23.6809	102.678
235.987	951.37	-0.1262	-23.6835	102.678
236.012	951.37	-0.1263	-23.6883	102.677
236.037	951.37	-0.1263	-23.6932	102.678
236.062	951.37	-0.1263	-23.6991	102.679
236.087	951.37	-0.1263	-23.7038	102.679
236.112	951.37	-0.1264	-23.7085	102.679
236.137	951.37	-0.1264	-23.7126	102.679
236.162	951.37	-0.1264	-23.7163	102.679
236.187	951.37	-0.1264	-23.7208	102.679
236.212	951.37	-0.1265	-23.7246	102.679
236.237	951.37	-0.1265	-23.7284	102.680
236.262	951.37	-0.1265	-23.7303	102.681
236.287	951.37	-0.1265	-23.7331	102.681
236.312	951.37	-0.1265	-23.7362	102.682
236.337	951.37	-0.1265	-23.7412	102.683
236.362	951.37	-0.1266	-23.7457	102.683
236.387	951.37	-0.1266	-23.7496	102.682
236.412	951.37	-0.1266	-23.7509	102.682
236.437	951.37	-0.1266	-23.7517	102.682
236.462	951.37	-0.1266	-23.7545	102.682
236.487	951.37	-0.1266	-23.7586	102.682
236.512	951.37	-0.1267	-23.7629	102.682
236.537	951.37	-0.1267	-23.7665	102.682
236.562	951.37	-0.1267	-23.7688	102.682
236.587	951.37	-0.1267	-23.7698	102.680
236.612	951.37	-0.1267	-23.7719	102.678
236.637	951.37	-0.1267	-23.7776	102.675
236.662	951.37	-0.1268	-23.7855	102.674
236.687	951.37	-0.1268	-23.7944	102.673
236.712	951.37	-0.1268	-23.7969	102.673
236.737	951.37	-0.1268	-23.7979	102.672
236.762	951.37	-0.1268	-23.7983	102.672
236.787	951.37	-0.1269	-23.8027	102.672
236.812	951.37	-0.1269	-23.8098	102.672
236.837	951.37	-0.1269	-23.8156	102.672
236.862	951.37	-0.1270	-23.8210	102.672
236.887	951.37	-0.1270	-23.8255	102.672
236.912	951.37	-0.1270	-23.8299	102.673
236.937	951.37	-0.1270	-23.8335	102.674
236.962	951.37	-0.1270	-23.8363	102.675
236.987	951.37	-0.1271	-23.8405	102.675
237.012	951.36	-0.1271	-23.8453	102.676
237.037	951.36	-0.1271	-23.8517	102.677
237.062		-0.1271	-23.8555
237.078		-0.1272	-23.8574

[step]
Equilibrate 30.00 °C
Time	Temperature	Weight	Weight	Heat Flow
min	°C	%	µg	mW