File: examples/proximate_analysis/MIS_2.txt
Time	Temperature	Weight	Weight	Heat Flow
min	°C	%	mg	mW
0.003		100.0565	3.7538
0.012		100.1438	3.7571
0.020		100.2206	3.7600
0.028		100.2869	3.7625
0.037		100.3419	3.7646
0.045	25.32	100.3832	3.7661	-22.786
0.053	25.40	100.4128	3.7672	-22.726
0.062	25.48	100.4336	3.7680	-22.667
0.070	25.57	100.4472	3.7685	-22.610
0.078	25.65	100.4549	3.7688	-22.554
0.087	25.73	100.4581	3.7689	-22.499
0.095	25.81	100.4591	3.7690	-22.445
0.103	25.89	100.4592	3.7690	-22.393
0.112	25.98	100.4587	3.7689	-22.340
0.120	26.06	100.4578	3.7689	-22.289
0.128	26.14	100.4566	3.7689	-22.239
0.137	26.22	100.4551	3.7688	-22.190
0.145	26.29	100.4534	3.7687	-22.142
0.153	26.37	100.4513	3.7687	-22.095
0.162	26.45	100.4490	3.7686	-22.049
0.170	26.53	100.4464	3.7685	-22.004
0.178	26.61	100.4435	3.7684	-21.958
0.187	26.69	100.4404	3.7683	-21.914
0.195	26.76	100.4370	3.7681	-21.871
0.203	26.84	100.4334	3.7680	-21.828
0.212	26.91	100.4295	3.7678	-21.786
0.220	26.99	100.4254	3.7677	-21.744
0.228	27.06	100.4210	3.7675	-21.702
0.237	27.14	100.4163	3.7673	-21.661
0.245	27.21	100.4115	3.7672	-21.621
0.253	27.29	100.4063	3.7670	-21.581
0.262	27.36	100.4010	3.7668	-21.542
0.270	27.43	100.3954	3.7666	-21.503
0.278	27.50	100.3895	3.7663	-21.465
0.287	27.58	100.3835	3.7661	-21.428
0.295	27.65	100.3772	3.7659	-21.392
0.303	27.72	100.3706	3.7656	-21.356
0.312	27.79	100.3639	3.7654	-21.321
0.320	27.86	100.3569	3.7651	-21.285
0.328	27.93	100.3496	3.7648	-21.250
0.337	28.00	100.3422	3.7646	-21.216
0.345	28.06	100.3345	3.7643	-21.182
0.353	28.13	100.3267	3.7640	-21.149
0.362	28.20	100.3186	3.7637	-21.116
0.370	28.27	100.3103	3.7634	-21.082
0.378	28.34	100.3019	3.7631	-21.050
0.387	28.40	100.2932	3.7627	-21.018
0.395	28.47	100.2844	3.7624	-20.986
0.403	28.53	100.2753	3.7621	-20.954
0.412	28.60	100.2661	3.7617	-20.923
0.420	28.66	100.2568	3.7614	-20.892
0.428	28.73	100.2472	3.7610	-20.862
0.437	28.79	100.2375	3.7606	-20.831
0.445	28.86	100.2277	3.7603	-20.800
0.453	28.92	100.2177	3.7599	-20.769
0.462	28.98	100.2076	3.7595	-20.739
0.470	29.04	100.1974	3.7591	-20.709
0.478	29.11	100.1871	3.7587	-20.680
0.487	29.17	100.1766	3.7584	-20.652
0.495	29.23	100.1661	3.7580	-20.623
0.503	29.29	100.1554	3.7576	-20.594
0.512	29.35	100.1446	3.7572	-20.567
0.520	29.41	100.1338	3.7567	-20.540
0.528	29.47	100.1228	3.7563	-20.513
0.537	29.53	100.1117	3.7559	-20.487
0.545	29.59	100.1006	3.7555	-20.460
0.553	29.65	100.0894	3.7551	-20.433
0.562	29.71	100.0781	3.7547	-20.406
0.570	29.77	100.0667	3.7542	-20.379
0.578	29.82	100.0553	3.7538	-20.353
0.587	29.88	100.0439	3.7534	-20.327
0.595	29.94	100.0323	3.7529	-20.300
0.603	29.99	100.0207	3.7525	-20.274
0.612	30.05	100.0091	3.7521	-20.248
0.620	30.11	99.9974	3.7516	-20.221
0.628	30.16	99.9857	3.7512	-20.195
0.637	30.22	99.9739	3.7507	-20.170
0.645	30.27	99.9621	3.7503	-20.145
0.653	30.33	99.9502	3.7499	-20.120
0.662	30.38	99.9383	3.7494	-20.095
0.670	30.43	99.9263	3.7490	-20.070
0.678	30.49	99.9144	3.7485	-20.045
0.687	30.54	99.9024	3.7481	-20.021
0.695	30.59	99.8904	3.7476	-19.997
0.703	30.65	99.8783	3.7472	-19.973
0.712	30.70	99.8663	3.7467	-19.949
0.720	30.75	99.8542	3.7463	-19.926
0.728	30.80	99.8421	3.7458	-19.902
0.737	30.85	99.8300	3.7453	-19.879
0.745	30.91	99.8178	3.7449	-19.856
0.753	30.96	99.8057	3.7444	-19.833
0.762	31.01	99.7935	3.7440	-19.809
0.770	31.06	99.7813	3.7435	-19.786
0.778	31.11	99.7692	3.7431	-19.763
0.787	31.16	99.7570	3.7426	-19.741
0.795	31.21	99.7448	3.7422	-19.717
0.803	31.26	99.7327	3.7417	-19.694
0.812	31.31	99.7205	3.7412	-19.672
0.820	31.36	99.7084	3.7408	-19.648
0.828	31.41	99.6963	3.7403	-19.625
0.837	31.46	99.6842	3.7399	-19.602
0.845	31.51	99.6721	3.7394	-19.580
0.853	31.56	99.6600	3.7390	-19.557
0.862	31.61	99.6480	3.7385	-19.535
0.870	31.66	99.6360	3.7381	-19.512
0.878	31.71	99.6240	3.7376	-19.490
0.887	31.76	99.6120	3.7372	-19.468
0.895	31.81	99.6000	3.7367	-19.445
0.903	31.85	99.5881	3.7363	-19.423
0.912	31.90	99.5762	3.7358	-19.402
0.920	31.95	99.5643	3.7354	-19.381
0.928	32.00	99.5524	3.7349	-19.359
0.937	32.05	99.5405	3.7345	-19.337
0.945	32.10	99.5287	3.7340	-19.315
0.953	32.15	99.5169	3.7336	-19.294
0.962	32.20	99.5051	3.7332	-19.273
0.970	32.25	99.4934	3.7327	-19.251
0.978	32.30	99.4817	3.7323	-19.229
0.987	32.35	99.4700	3.7318	-19.207
0.995	32.40	99.4583	3.7314	-19.185
1.003	32.45	99.4467	3.7310	-19.164
1.012	32.50	99.4351	3.7305	-19.141
1.020	32.55	99.4236	3.7301	-19.119
1.028	32.60	99.4121	3.7297	-19.098
1.037	32.66	99.4006	3.7292	-19.076
1.045	32.71	99.3891	3.7288	-19.054
1.053	32.76	99.3777	3.7284	-19.032
1.062	32.81	99.3663	3.7280	-19.010
1.070	32.86	99.3550	3.7275	-18.988
1.078	32.91	99.3437	3.7271	-18.966
1.087	32.97	99.3324	3.7267	-18.943
1.095	33.02	99.3211	3.7263	-18.921
1.103	33.07	99.3099	3.7258	-18.899
1.112	33.13	99.2987	3.7254	-18.876
1.120	33.18	99.2875	3.7250	-18.853
1.128	33.23	99.2764	3.7246	-18.831
1.137	33.29	99.2653	3.7242	-18.809
1.145	33.34	99.2542	3.7237	-18.786
1.153	33.39	99.2431	3.7233	-18.764
1.162	33.45	99.2321	3.7229	-18.742
1.170	33.50	99.2211	3.7225	-18.719
1.178	33.56	99.2101	3.7221	-18.698
1.187	33.61	99.1992	3.7217	-18.676
1.195	33.67	99.1882	3.7213	-18.654
1.203	33.72	99.1773	3.7209	-18.632
1.212	33.78	99.1665	3.7205	-18.609
1.220	33.83	99.1556	3.7200	-18.587
1.228	33.89	99.1447	3.7196	-18.564
1.237	33.95	99.1339	3.7192	-18.540
1.245	34.00	99.1231	3.7188	-18.517
1.253	34.06	99.1123	3.7184	-18.494
1.262	34.12	99.1015	3.7180	-18.470
1.270	34.17	99.0908	3.7176	-18.446
1.278	34.23	99.0801	3.7172	-18.422
1.287	34.29	99.0694	3.7168	-18.398
1.295	34.35	99.0587	3.7164	-18.374
1.303	34.41	99.0481	3.7160	-18.350
1.312	34.46	99.0374	3.7156	-18.327
1.320	34.52	99.0268	3.7152	-18.303
1.328	34.58	99.0162	3.7148	-18.280
1.337	34.64	99.0056	3.7144	-18.256
1.345	34.70	98.9951	3.7140	-18.232
1.353	34.76	98.9845	3.7136	-18.208
1.362	34.82	98.9740	3.7132	-18.184
1.370	34.88	98.9635	3.7128	-18.160
1.378	34.95	98.9530	3.7124	-18.136
1.387	35.01	98.9425	3.7121	-18.111
1.395	35.07	98.9321	3.7117	-18.087
1.403	35.13	98.9217	3.7113	-18.063
1.412	35.19	98.9113	3.7109	-18.038
1.420	35.26	98.9009	3.7105	-18.013
1.428	35.32	98.8905	3.7101	-17.987
1.437	35.38	98.8801	3.7097	-17.961
1.445	35.45	98.8697	3.7093	-17.935
1.453	35.51	98.8593	3.7089	-17.909
1.462	35.57	98.8490	3.7085	-17.884
1.470	35.64	98.8387	3.7082	-17.858
1.478	35.70	98.8284	3.7078	-17.833
1.487	35.77	98.8181	3.7074	-17.806
1.495	35.83	98.8078	3.7070	-17.780
1.503	35.90	98.7976	3.7066	-17.754
1.512	35.96	98.7873	3.7062	-17.728
1.520	36.03	98.7771	3.7058	-17.703
1.528	36.09	98.7668	3.7055	-17.677
1.537	36.16	98.7566	3.7051	-17.651
1.545	36.23	98.7464	3.7047	-17.624
1.553	36.29	98.7361	3.7043	-17.597
1.562	36.36	98.7258	3.7039	-17.570
1.570	36.43	98.7156	3.7035	-17.544
1.578	36.50	98.7053	3.7032	-17.517
1.587	36.57	98.6951	3.7028	-17.490
1.595	36.63	98.6849	3.7024	-17.463
1.603	36.70	98.6747	3.7020	-17.435
1.612	36.77	98.6645	3.7016	-17.408
1.620	36.84	98.6543	3.7012	-17.381
1.628	36.91	98.6441	3.7009	-17.353
1.637	36.98	98.6340	3.7005	-17.326
1.645	37.05	98.6239	3.7001	-17.299
1.653	37.12	98.6138	3.6997	-17.272
1.662	37.19	98.6037	3.6993	-17.244
1.670	37.26	98.5937	3.6990	-17.216
1.678	37.33	98.5836	3.6986	-17.188
1.687	37.41	98.5736	3.6982	-17.161
1.695	37.48	98.5636	3.6978	-17.133
1.703	37.55	98.5535	3.6975	-17.105
1.712	37.62	98.5435	3.6971	-17.078
1.720	37.69	98.5336	3.6967	-17.050
1.728	37.77	98.5236	3.6963	-17.022
1.737	37.84	98.5136	3.6960	-16.993
1.745	37.91	98.5036	3.6956	-16.965
1.753	37.99	98.4937	3.6952	-16.937
1.762	38.06	98.4837	3.6948	-16.908
1.770	38.14	98.4737	3.6945	-16.880
1.778	38.21	98.4638	3.6941	-16.851
1.787	38.29	98.4538	3.6937	-16.823
1.795	38.36	98.4439	3.6933	-16.795
1.803	38.44	98.4339	3.6930	-16.766
1.812	38.51	98.4240	3.6926	-16.737
1.820	38.59	98.4140	3.6922	-16.708
1.828	38.66	98.4040	3.6919	-16.679
1.837	38.74	98.3941	3.6915	-16.650
1.845	38.82	98.3842	3.6911	-16.622
1.853	38.89	98.3742	3.6907	-16.593
1.862	38.97	98.3643	3.6904	-16.564
1.870	39.05	98.3543	3.6900	-16.535
1.878	39.13	98.3444	3.6896	-16.507
1.887	39.20	98.3344	3.6892	-16.477
1.895	39.28	98.3244	3.6889	-16.447
1.903	39.36	98.3145	3.6885	-16.418
1.912	39.44	98.3045	3.6881	-16.388
1.920	39.52	98.2946	3.6877	-16.358
1.928	39.60	98.2847	3.6874	-16.328
1.937	39.67	98.2748	3.6870	-16.298
1.945	39.75	98.2648	3.6866	-16.269
1.953	39.83	98.2549	3.6863	-16.238
1.962	39.91	98.2451	3.6859	-16.208
1.970	39.99	98.2352	3.6855	-16.178
1.978	40.07	98.2253	3.6851	-16.147
1.987	40.15	98.2155	3.6848	-16.117
1.995	40.23	98.2056	3.6844	-16.086
2.003	40.32	98.1957	3.6840	-16.056
2.012	40.40	98.1858	3.6837	-16.026
2.020	40.48	98.1760	3.6833	-15.995
2.028	40.56	98.1661	3.6829	-15.964
2.037	40.64	98.1562	3.6826	-15.932
2.045	40.72	98.1462	3.6822	-15.901
2.053	40.81	98.1363	3.6818	-15.870
2.062	40.89	98.1264	3.6814	-15.839
2.070	40.97	98.1165	3.6811	-15.808
2.078	41.05	98.1065	3.6807	-15.777
2.087	41.14	98.0966	3.6803	-15.744
2.095	41.22	98.0867	3.6799	-15.713
2.103	41.30	98.0768	3.6796	-15.681
2.112	41.39	98.0669	3.6792	-15.649
2.120	41.47	98.0570	3.6788	-15.618
2.128	41.55	98.0471	3.6785	-15.586
2.137	41.64	98.0372	3.6781	-15.554
2.145	41.72	98.0273	3.6777	-15.522
2.153	41.81	98.0174	3.6773	-15.490
2.162	41.89	98.0075	3.6770	-15.459
2.170	41.97	97.9976	3.6766	-15.427
2.178	42.06	97.9876	3.6762	-15.395
2.187	42.14	97.9777	3.6759	-15.362
2.195	42.23	97.9678	3.6755	-15.329
2.203	42.31	97.9579	3.6751	-15.296
2.212	42.40	97.9480	3.6747	-15.264
2.220	42.49	97.9380	3.6744	-15.231
2.228	42.57	97.9281	3.6740	-15.199
2.237	42.66	97.9183	3.6736	-15.166
2.245	42.74	97.9084	3.6733	-15.133
2.253	42.83	97.8985	3.6729	-15.100
2.262	42.92	97.8886	3.6725	-15.067
2.270	43.00	97.8787	3.6721	-15.034
2.278	43.09	97.8689	3.6718	-15.001
2.287	43.18	97.8590	3.6714	-14.967
2.295	43.26	97.8491	3.6710	-14.934
2.303	43.35	97.8393	3.6707	-14.900
2.312	43.44	97.8294	3.6703	-14.866
2.320	43.52	97.8195	3.6699	-14.832
2.328	43.61	97.8096	3.6696	-14.799
2.337	43.70	97.7997	3.6692	-14.766
2.345	43.79	97.7897	3.6688	-14.732
2.353	43.87	97.7798	3.6684	-14.699
2.362	43.96	97.7698	3.6681	-14.664
2.370	44.05	97.7599	3.6677	-14.631
2.378	44.14	97.7499	3.6673	-14.596
2.387	44.23	97.7399	3.6669	-14.562
2.395	44.31	97.7300	3.6666	-14.528
2.403	44.40	97.7200	3.6662	-14.493
2.412	44.49	97.7101	3.6658	-14.458
2.420	44.58	97.7002	3.6654	-14.423
2.428	44.67	97.6902	3.6651	-14.388
2.437	44.76	97.6803	3.6647	-14.353
2.445	44.85	97.6704	3.6643	-14.319
2.453	44.94	97.6604	3.6640	-14.284
2.462	45.03	97.6504	3.6636	-14.249
2.470	45.12	97.6404	3.6632	-14.214
2.478	45.21	97.6305	3.6628	-14.179
2.487	45.30	97.6205	3.6625	-14.144
2.495	45.38	97.6105	3.6621	-14.109
2.503	45.47	97.6005	3.6617	-14.074
2.512	45.56	97.5905	3.6613	-14.039
2.520	45.65	97.5805	3.6610	-14.004
2.528	45.74	97.5705	3.6606	-13.968
2.537	45.83	97.5605	3.6602	-13.933
2.545	45.92	97.5505	3.6598	-13.898
2.553	46.01	97.5406	3.6595	-13.862
2.562	46.10	97.5306	3.6591	-13.827
2.570	46.19	97.5207	3.6587	-13.791
2.578	46.28	97.5108	3.6583	-13.756
2.587	46.37	97.5008	3.6580	-13.720
2.595	46.46	97.4909	3.6576	-13.684
2.603	46.55	97.4810	3.6572	-13.648
2.612	46.64	97.4711	3.6568	-13.611
2.620	46.73	97.4611	3.6565	-13.575
2.628	46.82	97.4512	3.6561	-13.539
2.637	46.92	97.4413	3.6557	-13.503
2.645	47.01	97.4314	3.6554	-13.467
2.653	47.10	97.4214	3.6550	-13.431
2.662	47.19	97.4115	3.6546	-13.394
2.670	47.28	97.4016	3.6542	-13.358
2.678	47.37	97.3917	3.6539	-13.322
2.687	47.46	97.3818	3.6535	-13.286
2.695	47.55	97.3720	3.6531	-13.250
2.703	47.64	97.3621	3.6528	-13.214
2.712	47.73	97.3522	3.6524	-13.177
2.720	47.82	97.3423	3.6520	-13.141
2.728	47.91	97.3325	3.6517	-13.104
2.737	48.00	97.3226	3.6513	-13.067
2.745	48.09	97.3127	3.6509	-13.030
2.753	48.19	97.3028	3.6505	-12.993
2.762	48.28	97.2930	3.6502	-12.956
2.770	48.37	97.2831	3.6498	-12.919
2.778	48.46	97.2732	3.6494	-12.883
2.787	48.55	97.2633	3.6491	-12.846
2.795	48.64	97.2534	3.6487	-12.809
2.803	48.73	97.2436	3.6483	-12.772
2.812	48.83	97.2337	3.6479	-12.735
2.820	48.92	97.2238	3.6476	-12.699
2.828	49.01	97.2139	3.6472	-12.663
2.837	49.10	97.2041	3.6468	-12.626
2.845	49.19	97.1942	3.6465	-12.589
2.853	49.28	97.1843	3.6461	-12.552
2.862	49.37	97.1744	3.6457	-12.515
2.870	49.46	97.1645	3.6453	-12.478
2.878	49.55	97.1546	3.6450	-12.441
2.887	49.65	97.1447	3.6446	-12.404
2.895	49.74	97.1347	3.6442	-12.367
2.903	49.83	97.1248	3.6439	-12.330
2.912	49.92	97.1149	3.6435	-12.291
2.920	50.01	97.1050	3.6431	-12.254
2.928	50.10	97.0952	3.6427	-12.217
2.937	50.19	97.0853	3.6424	-12.179
2.945	50.28	97.0754	3.6420	-12.142
2.953	50.38	97.0655	3.6416	-12.104
2.962	50.47	97.0556	3.6413	-12.067
2.970	50.56	97.0458	3.6409	-12.029
2.978	50.65	97.0359	3.6405	-11.991
2.987	50.74	97.0260	3.6402	-11.953
2.995	50.83	97.0161	3.6398	-11.916
3.003	50.92	97.0063	3.6394	-11.878
3.012	51.01	96.9964	3.6390	-11.840
3.020	51.11	96.9866	3.6387	-11.802
3.028	51.20	96.9768	3.6383	-11.764
3.037	51.29	96.9670	3.6379	-11.726
3.045	51.38	96.9572	3.6376	-11.689
3.053	51.47	96.9474	3.6372	-11.651
3.062	51.56	96.9376	3.6368	-11.613
3.070	51.65	96.9279	3.6365	-11.576
3.078	51.74	96.9181	3.6361	-11.539
3.087	51.84	96.9083	3.6357	-11.502
3.095	51.93	96.8986	3.6354	-11.464
3.103	52.02	96.8888	3.6350	-11.427
3.112	52.11	96.8791	3.6346	-11.389
3.120	52.20	96.8693	3.6343	-11.351
3.128	52.29	96.8596	3.6339	-11.314
3.137	52.38	96.8498	3.6335	-11.277
3.145	52.47	96.8401	3.6332	-11.239
3.153	52.56	96.8304	3.6328	-11.201
3.162	52.65	96.8206	3.6324	-11.162
3.170	52.75	96.8109	3.6321	-11.123
3.178	52.84	96.8012	3.6317	-11.085
3.187	52.93	96.7915	3.6314	-11.046
3.195	53.02	96.7819	3.6310	-11.009
3.203	53.11	96.7722	3.6306	-10.971
3.212	53.20	96.7626	3.6303	-10.933
3.220	53.29	96.7530	3.6299	-10.895
3.228	53.38	96.7433	3.6295	-10.857
3.237	53.47	96.7337	3.6292	-10.820
3.245	53.56	96.7242	3.6288	-10.782
3.253	53.65	96.7146	3.6285	-10.745
3.262	53.74	96.7050	3.6281	-10.708
3.270	53.83	96.6955	3.6278	-10.671
3.278	53.92	96.6859	3.6274	-10.633
3.287	54.01	96.6764	3.6270	-10.595
3.295	54.10	96.6668	3.6267	-10.557
3.303	54.20	96.6573	3.6263	-10.519
3.312	54.29	96.6478	3.6260	-10.482
3.320	54.38	96.6383	3.6256	-10.444
3.328	54.47	96.6288	3.6253	-10.407
3.337	54.56	96.6193	3.6249	-10.369
3.345	54.65	96.6099	3.6245	-10.331
3.353	54.74	96.6005	3.6242	-10.293
3.362	54.82	96.5910	3.6238	-10.256
3.370	54.92	96.5816	3.6235	-10.218
3.378	55.01	96.5722	3.6231	-10.179
3.387	55.10	96.5628	3.6228	-10.142
3.395	55.19	96.5533	3.6224	-10.105
3.403	55.28	96.5440	3.6221	-10.066
3.412	55.37	96.5346	3.6217	-10.028
3.420	55.46	96.5252	3.6214	-9.990
3.428	55.55	96.5159	3.6210	-9.953
3.437	55.64	96.5066	3.6207	-9.915
3.445	55.73	96.4972	3.6203	-9.878
3.453	55.81	96.4879	3.6200	-9.841
3.462	55.90	96.4787	3.6196	-9.803
3.470	55.99	96.4694	3.6193	-9.766
3.478	56.08	96.4601	3.6189	-9.728
3.487	56.17	96.4509	3.6186	-9.691
3.495	56.26	96.4416	3.6182	-9.654
3.503	56.35	96.4324	3.6179	-9.617
3.512	56.44	96.4232	3.6175	-9.580
3.520	56.53	96.4140	3.6172	-9.543
3.528	56.62	96.4049	3.6168	-9.505
3.537	56.71	96.3957	3.6165	-9.468
3.545	56.80	96.3866	3.6162	-9.431
3.553	56.89	96.3775	3.6158	-9.393
3.562	56.98	96.3683	3.6155	-9.356
3.570	57.06	96.3592	3.6151	-9.319
3.578	57.15	96.3501	3.6148	-9.282
3.587	57.24	96.3410	3.6145	-9.245
3.595	57.33	96.3320	3.6141	-9.208
3.603	57.42	96.3230	3.6138	-9.171
3.612	57.51	96.3139	3.6134	-9.134
3.620	57.60	96.3049	3.6131	-9.097
3.628	57.69	96.2960	3.6128	-9.060
3.637	57.78	96.2870	3.6124	-9.024
3.645	57.86	96.2780	3.6121	-8.987
3.653	57.95	96.2691	3.6118	-8.949
3.662	58.04	96.2602	3.6114	-8.912
3.670	58.13	96.2513	3.6111	-8.874
3.678	58.22	96.2424	3.6108	-8.835
3.687	58.31	96.2335	3.6104	-8.798
3.695	58.40	96.2246	3.6101	-8.760
3.703	58.48	96.2158	3.6098	-8.722
3.712	58.57	96.2070	3.6094	-8.685
3.720	58.66	96.1982	3.6091	-8.648
3.728	58.75	96.1894	3.6088	-8.611
3.737	58.84	96.1807	3.6084	-8.575
3.745	58.93	96.1719	3.6081	-8.538
3.753	59.01	96.1632	3.6078	-8.502
3.762	59.10	96.1545	3.6075	-8.466
3.770	59.19	96.1459	3.6071	-8.429
3.778	59.28	96.1372	3.6068	-8.393
3.787	59.37	96.1286	3.6065	-8.357
3.795	59.45	96.1200	3.6062	-8.321
3.803	59.54	96.1114	3.6058	-8.284
3.812	59.63	96.1028	3.6055	-8.248
3.820	59.72	96.0943	3.6052	-8.211
3.828	59.81	96.0857	3.6049	-8.175
3.837	59.89	96.0772	3.6046	-8.139
3.845	59.98	96.0687	3.6042	-8.103
3.853	60.07	96.0603	3.6039	-8.067
3.862	60.16	96.0518	3.6036	-8.031
3.870	60.24	96.0433	3.6033	-7.995
3.878	60.33	96.0349	3.6030	-7.959
3.887	60.42	96.0265	3.6027	-7.922
3.895	60.51	96.0181	3.6023	-7.886
3.903	60.59	96.0097	3.6020	-7.850
3.912	60.68	96.0014	3.6017	-7.814
3.920	60.77	95.9931	3.6014	-7.778
3.928	60.86	95.9848	3.6011	-7.742
3.937	60.94	95.9765	3.6008	-7.706
3.945	61.03	95.9682	3.6005	-7.670
3.953	61.12	95.9600	3.6002	-7.635
3.962	61.21	95.9517	3.5998	-7.598
3.970	61.29	95.9435	3.5995	-7.562
3.978	61.38	95.9354	3.5992	-7.527
3.987	61.47	95.9272	3.5989	-7.491
3.995	61.55	95.9191	3.5986	-7.455
4.003	61.64	95.9110	3.5983	-7.419
4.012	61.73	95.9029	3.5980	-7.385
4.020	61.81	95.8948	3.5977	-7.349
4.028	61.90	95.8868	3.5974	-7.314
4.037	61.99	95.8788	3.5971	-7.279
4.045	62.07	95.8708	3.5968	-7.244
4.053	62.16	95.8628	3.5965	-7.209
4.062	62.25	95.8549	3.5962	-7.174
4.070	62.33	95.8470	3.5959	-7.138
4.078	62.42	95.8390	3.5956	-7.103
4.087	62.51	95.8312	3.5953	-7.068
4.095	62.59	95.8233	3.5950	-7.033
4.103	62.68	95.8155	3.5947	-6.998
4.112	62.77	95.8076	3.5944	-6.964
4.120	62.85	95.7998	3.5941	-6.928
4.128	62.94	95.7920	3.5939	-6.892
4.137	63.03	95.7843	3.5936	-6.857
4.145	63.11	95.7765	3.5933	-6.822
4.153	63.20	95.7689	3.5930	-6.787
4.162	63.29	95.7612	3.5927	-6.752
4.170	63.37	95.7535	3.5924	-6.716
4.178	63.46	95.7459	3.5921	-6.681
4.187	63.55	95.7383	3.5918	-6.646
4.195	63.63	95.7307	3.5916	-6.610
4.203	63.72	95.7232	3.5913	-6.575
4.212	63.80	95.7156	3.5910	-6.541
4.220	63.89	95.7081	3.5907	-6.506
4.228	63.98	95.7006	3.5904	-6.471
4.237	64.06	95.6931	3.5901	-6.436
4.245	64.15	95.6857	3.5899	-6.401
4.253	64.23	95.6783	3.5896	-6.367
4.262	64.32	95.6709	3.5893	-6.333
4.270	64.41	95.6635	3.5890	-6.299
4.278	64.49	95.6561	3.5888	-6.265
4.287	64.58	95.6488	3.5885	-6.231
4.295	64.66	95.6415	3.5882	-6.197
4.303	64.75	95.6343	3.5879	-6.162
4.312	64.84	95.6270	3.5877	-6.128
4.320	64.92	95.6198	3.5874	-6.094
4.328	65.01	95.6126	3.5871	-6.060
4.337	65.09	95.6054	3.5869	-6.025
4.345	65.18	95.5983	3.5866	-5.991
4.353	65.27	95.5912	3.5863	-5.956
4.362	65.35	95.5841	3.5861	-5.922
4.370	65.44	95.5770	3.5858	-5.887
4.378	65.52	95.5700	3.5855	-5.853
4.387	65.61	95.5630	3.5853	-5.819
4.395	65.69	95.5560	3.5850	-5.785
4.403	65.78	95.5490	3.5847	-5.751
4.412	65.87	95.5420	3.5845	-5.717
4.420	65.95	95.5350	3.5842	-5.683
4.428	66.04	95.5281	3.5840	-5.649
4.437	66.12	95.5212	3.5837	-5.615
4.445	66.21	95.5142	3.5834	-5.582
4.453	66.29	95.5073	3.5832	-5.549
4.462	66.38	95.5004	3.5829	-5.515
4.470	66.47	95.4935	3.5827	-5.481
4.478	66.55	95.4867	3.5824	-5.448
4.487	66.64	95.4799	3.5821	-5.415
4.495	66.72	95.4731	3.5819	-5.381
4.503	66.81	95.4663	3.5816	-5.348
4.512	66.89	95.4595	3.5814	-5.314
4.520	66.98	95.4528	3.5811	-5.281
4.528	67.07	95.4461	3.5809	-5.247
4.537	67.15	95.4394	3.5806	-5.214
4.545	67.24	95.4328	3.5804	-5.181
4.553	67.32	95.4262	3.5801	-5.148
4.562	67.41	95.4196	3.5799	-5.115
4.570	67.49	95.4131	3.5796	-5.082
4.578	67.58	95.4066	3.5794	-5.050
4.587	67.66	95.4001	3.5792	-5.017
4.595	67.75	95.3937	3.5789	-4.986
4.603	67.83	95.3873	3.5787	-4.953
4.612	67.92	95.3809	3.5784	-4.921
4.620	68.00	95.3745	3.5782	-4.889
4.628	68.09	95.3681	3.5780	-4.857
4.637	68.17	95.3618	3.5777	-4.824
4.645	68.26	95.3555	3.5775	-4.792
4.653	68.34	95.3492	3.5772	-4.760
4.662	68.43	95.3429	3.5770	-4.727
4.670	68.52	95.3367	3.5768	-4.694
4.678	68.60	95.3304	3.5765	-4.660
4.687	68.69	95.3242	3.5763	-4.627
4.695	68.77	95.3180	3.5761	-4.594
4.703	68.86	95.3119	3.5758	-4.562
4.712	68.94	95.3057	3.5756	-4.530
4.720	69.03	95.2996	3.5754	-4.498
4.728	69.11	95.2936	3.5752	-4.465
4.737	69.20	95.2875	3.5749	-4.433
4.745	69.28	95.2815	3.5747	-4.401
4.753	69.37	95.2755	3.5745	-4.370
4.762	69.45	95.2695	3.5743	-4.338
4.770	69.54	95.2636	3.5740	-4.307
4.778	69.62	95.2576	3.5738	-4.275
4.787	69.71	95.2517	3.5736	-4.243
4.795	69.79	95.2459	3.5734	-4.211
4.803	69.88	95.2400	3.5731	-4.179
4.812	69.96	95.2341	3.5729	-4.147
4.820	70.05	95.2283	3.5727	-4.115
4.828	70.13	95.2225	3.5725	-4.084
4.837	70.22	95.2167	3.5723	-4.052
4.845	70.30	95.2109	3.5721	-4.021
4.853	70.39	95.2051	3.5718	-3.991
4.862	70.47	95.1994	3.5716	-3.960
4.870	70.56	95.1937	3.5714	-3.928
4.878	70.64	95.1880	3.5712	-3.898
4.887	70.73	95.1823	3.5710	-3.866
4.895	70.81	95.1766	3.5708	-3.835
4.903	70.90	95.1710	3.5706	-3.804
4.912	70.98	95.1655	3.5703	-3.774
4.920	71.07	95.1599	3.5701	-3.743
4.928	71.15	95.1544	3.5699	-3.712
4.937	71.24	95.1489	3.5697	-3.680
4.945	71.32	95.1434	3.5695	-3.649
4.953	71.41	95.1379	3.5693	-3.618
4.962	71.49	95.1324	3.5691	-3.587
4.970	71.58	95.1270	3.5689	-3.556
4.978	71.66	95.1216	3.5687	-3.525
4.987	71.75	95.1162	3.5685	-3.494
4.995	71.83	95.1107	3.5683	-3.463
5.003	71.92	95.1053	3.5681	-3.431
5.012	72.00	95.1000	3.5679	-3.401
5.020	72.09	95.0946	3.5677	-3.371
5.028	72.17	95.0893	3.5675	-3.340
5.037	72.26	95.0840	3.5673	-3.310
5.045	72.34	95.0787	3.5671	-3.280
5.053	72.43	95.0735	3.5669	-3.250
5.062	72.51	95.0682	3.5667	-3.221
5.070	72.60	95.0630	3.5665	-3.191
5.078	72.68	95.0579	3.5663	-3.161
5.087	72.77	95.0527	3.5661	-3.131
5.095	72.85	95.0476	3.5659	-3.100
5.103	72.94	95.0425	3.5657	-3.071
5.112	73.02	95.0375	3.5655	-3.041
5.120	73.11	95.0324	3.5654	-3.010
5.128	73.19	95.0274	3.5652	-2.981
5.137	73.28	95.0224	3.5650	-2.951
5.145	73.36	95.0175	3.5648	-2.922
5.153	73.45	95.0126	3.5646	-2.892
5.162	73.53	95.0077	3.5644	-2.862
5.170	73.62	95.0028	3.5642	-2.832
5.178	73.70	94.9979	3.5641	-2.802
5.187	73.79	94.9931	3.5639	-2.772
5.195	73.87	94.9882	3.5637	-2.742
5.203	73.96	94.9834	3.5635	-2.712
5.212	74.04	94.9786	3.5633	-2.682
5.220	74.13	94.9738	3.5632	-2.652
5.228	74.21	94.9690	3.5630	-2.622
5.237	74.30	94.9642	3.5628	-2.592
5.245	74.38	94.9595	3.5626	-2.563
5.253	74.47	94.9548	3.5624	-2.534
5.262	74.55	94.9501	3.5623	-2.504
5.270	74.64	94.9454	3.5621	-2.475
5.278	74.72	94.9407	3.5619	-2.446
5.287	74.81	94.9361	3.5617	-2.416
5.295	74.90	94.9315	3.5616	-2.386
5.303	74.98	94.9269	3.5614	-2.356
5.312	75.07	94.9223	3.5612	-2.327
5.320	75.15	94.9177	3.5611	-2.297
5.328	75.24	94.9131	3.5609	-2.267
5.337	75.32	94.9086	3.5607	-2.238
5.345	75.41	94.9041	3.5605	-2.208
5.353	75.49	94.8996	3.5604	-2.179
5.362	75.58	94.8951	3.5602	-2.150
5.370	75.66	94.8906	3.5600	-2.121
5.378	75.75	94.8862	3.5599	-2.092
5.387	75.83	94.8818	3.5597	-2.063
5.395	75.92	94.8774	3.5595	-2.034
5.403	76.00	94.8731	3.5594	-2.006
5.412	76.09	94.8687	3.5592	-1.977
5.420	76.18	94.8644	3.5591	-1.949
5.428	76.26	94.8601	3.5589	-1.921
5.437	76.35	94.8558	3.5587	-1.892
5.445	76.43	94.8515	3.5586	-1.863
5.453	76.52	94.8473	3.5584	-1.834
5.462	76.60	94.8431	3.5583	-1.806
5.470	76.69	94.8389	3.5581	-1.778
5.478	76.77	94.8347	3.5579	-1.750
5.487	76.86	94.8305	3.5578	-1.722
5.495	76.94	94.8263	3.5576	-1.693
5.503	77.03	94.8222	3.5575	-1.665
5.512	77.12	94.8180	3.5573	-1.638
5.520	77.20	94.8139	3.5572	-1.610
5.528	77.29	94.8098	3.5570	-1.582
5.537	77.37	94.8057	3.5569	-1.554
5.545	77.46	94.8016	3.5567	-1.526
5.553	77.54	94.7976	3.5565	-1.498
5.562	77.63	94.7935	3.5564	-1.469
5.570	77.71	94.7895	3.5562	-1.441
5.578	77.80	94.7855	3.5561	-1.413
5.587	77.88	94.7815	3.5559	-1.384
5.595	77.97	94.7776	3.5558	-1.355
5.603	78.05	94.7737	3.5557	-1.326
5.612	78.14	94.7698	3.5555	-1.299
5.620	78.23	94.7659	3.5554	-1.270
5.628	78.31	94.7620	3.5552	-1.242
5.637	78.40	94.7582	3.5551	-1.215
5.645	78.48	94.7544	3.5549	-1.187
5.653	78.57	94.7506	3.5548	-1.159
5.662	78.65	94.7468	3.5546	-1.132
5.670	78.74	94.7431	3.5545	-1.105
5.678	78.82	94.7393	3.5544	-1.078
5.687	78.91	94.7356	3.5542	-1.050
5.695	79.00	94.7319	3.5541	-1.023
5.703	79.08	94.7282	3.5539	-0.997
5.712	79.17	94.7245	3.5538	-0.969
5.720	79.25	94.7209	3.5537	-0.942
5.728	79.34	94.7173	3.5535	-0.915
5.737	79.42	94.7136	3.5534	-0.888
5.745	79.51	94.7100	3.5533	-0.861
5.753	79.60	94.7064	3.5531	-0.833
5.762	79.68	94.7029	3.5530	-0.806
5.770	79.77	94.6993	3.5529	-0.779
5.778	79.85	94.6957	3.5527	-0.752
5.787	79.94	94.6922	3.5526	-0.724
5.795	80.02	94.6887	3.5525	-0.698
5.803	80.11	94.6852	3.5523	-0.671
5.812	80.20	94.6817	3.5522	-0.643
5.820	80.28	94.6782	3.5521	-0.616
5.828	80.37	94.6748	3.5519	-0.589
5.837	80.45	94.6714	3.5518	-0.562
5.845	80.54	94.6679	3.5517	-0.535
5.853	80.62	94.6645	3.5516	-0.508
5.862	80.71	94.6612	3.5514	-0.481
5.870	80.80	94.6578	3.5513	-0.454
5.878	80.88	94.6545	3.5512	-0.427
5.887	80.97	94.6511	3.5511	-0.400
5.895	81.05	94.6478	3.5509	-0.374
5.903	81.14	94.6446	3.5508	-0.348
5.912	81.22	94.6413	3.5507	-0.322
5.920	81.31	94.6381	3.5506	-0.296
5.928	81.40	94.6348	3.5504	-0.269
5.937	81.48	94.6316	3.5503	-0.244
5.945	81.57	94.6284	3.5502	-0.218
5.953	81.65	94.6252	3.5501	-0.192
5.962	81.74	94.6220	3.5500	-0.165
5.970	81.82	94.6189	3.5498	-0.139
5.978	81.91	94.6157	3.5497	-0.113
5.987	82.00	94.6125	3.5496	-0.087
5.995	82.08	94.6094	3.5495	-0.061
6.003	82.17	94.6063	3.5494	-0.034
6.012	82.26	94.6031	3.5493	-0.008
6.020	82.34	94.6000	3.5491	0.018
6.028	82.43	94.5969	3.5490	0.044
6.037	82.51	94.5938	3.5489	0.070
6.045	82.60	94.5907	3.5488	0.096
6.053	82.69	94.5876	3.5487	0.122
6.062	82.77	94.5846	3.5486	0.148
6.070	82.86	94.5815	3.5484	0.174
6.078	82.95	94.5785	3.5483	0.201
6.087	83.03	94.5756	3.5482	0.228
6.095	83.12	94.5726	3.5481	0.253
6.103	83.20	94.5697	3.5480	0.280
6.112	83.29	94.5668	3.5479	0.306
6.120	83.38	94.5639	3.5478	0.332
6.128	83.46	94.5611	3.5477	0.358
6.137	83.55	94.5583	3.5476	0.383
6.145	83.63	94.5554	3.5475	0.409
6.153	83.72	94.5526	3.5474	0.435
6.162	83.81	94.5498	3.5473	0.460
6.170	83.89	94.5470	3.5471	0.485
6.178	83.98	94.5443	3.5470	0.511
6.187	84.06	94.5415	3.5469	0.537
6.195	84.15	94.5388	3.5468	0.562
6.203	84.24	94.5360	3.5467	0.588
6.212	84.32	94.5333	3.5466	0.614
6.220	84.41	94.5306	3.5465	0.640
6.228	84.50	94.5279	3.5464	0.664
6.237	84.58	94.5252	3.5463	0.690
6.245	84.67	94.5226	3.5462	0.715
6.253	84.76	94.5200	3.5461	0.740
6.262	84.84	94.5174	3.5460	0.765
6.270	84.93	94.5148	3.5459	0.790
6.278	85.01	94.5122	3.5458	0.815
6.287	85.10	94.5096	3.5457	0.840
6.295	85.19	94.5070	3.5456	0.864
6.303	85.27	94.5045	3.5456	0.889
6.312	85.36	94.5019	3.5455	0.914
6.320	85.45	94.4993	3.5454	0.939
6.328	85.53	94.4968	3.5453	0.963
6.337	85.62	94.4943	3.5452	0.988
6.345	85.71	94.4918	3.5451	1.013
6.353	85.79	94.4893	3.5450	1.037
6.362	85.88	94.4868	3.5449	1.062
6.370	85.96	94.4843	3.5448	1.086
6.378	86.05	94.4818	3.5447	1.111
6.387	86.14	94.4793	3.5446	1.136
6.395	86.22	94.4769	3.5445	1.161
6.403	86.31	94.4745	3.5444	1.185
6.412	86.40	94.4721	3.5443	1.210
6.420	86.48	94.4697	3.5442	1.234
6.428	86.57	94.4673	3.5442	1.259
6.437	86.65	94.4650	3.5441	1.284
6.445	86.74	94.4626	3.5440	1.309
6.453	86.83	94.4603	3.5439	1.334
6.462	86.91	94.4580	3.5438	1.358
6.470	87.00	94.4558	3.5437	1.382
6.478	87.09	94.4535	3.5436	1.406
6.487	87.17	94.4512	3.5436	1.431
6.495	87.26	94.4490	3.5435	1.456
6.503	87.35	94.4468	3.5434	1.480
6.512	87.43	94.4446	3.5433	1.504
6.520	87.52	94.4424	3.5432	1.528
6.528	87.61	94.4403	3.5431	1.553
6.537	87.69	94.4381	3.5431	1.576
6.545	87.78	94.4360	3.5430	1.601
6.553	87.87	94.4339	3.5429	1.625
6.562	87.95	94.4318	3.5428	1.650
6.570	88.04	94.4296	3.5427	1.674
6.578	88.13	94.4275	3.5427	1.699
6.587	88.21	94.4254	3.5426	1.724
6.595	88.30	94.4233	3.5425	1.748
6.603	88.39	94.4212	3.5424	1.772
6.612	88.47	94.4191	3.5423	1.797
6.620	88.56	94.4170	3.5423	1.820
6.628	88.65	94.4149	3.5422	1.844
6.637	88.73	94.4128	3.5421	1.868
6.645	88.82	94.4108	3.5420	1.892
6.653	88.90	94.4088	3.5420	1.916
6.662	88.99	94.4068	3.5419	1.939
6.670	89.08	94.4048	3.5418	1.962
6.678	89.16	94.4028	3.5417	1.986
6.687	89.25	94.4008	3.5417	2.010
6.695	89.34	94.3989	3.5416	2.033
6.703	89.42	94.3969	3.5415	2.057
6.712	89.51	94.3949	3.5414	2.080
6.720	89.60	94.3930	3.5414	2.104
6.728	89.68	94.3911	3.5413	2.128
6.737	89.77	94.3892	3.5412	2.151
6.745	89.86	94.3873	3.5412	2.174
6.753	89.94	94.3854	3.5411	2.197
6.762	90.03	94.3836	3.5410	2.221
6.770	90.12	94.3817	3.5409	2.244
6.778	90.20	94.3799	3.5409	2.267
6.787	90.29	94.3780	3.5408	2.290
6.795	90.38	94.3762	3.5407	2.313
6.803	90.46	94.3744	3.5407	2.335
6.812	90.55	94.3726	3.5406	2.358
6.820	90.64	94.3708	3.5405	2.381
6.828	90.72	94.3690	3.5405	2.404
6.837	90.81	94.3672	3.5404	2.426
6.845	90.89	94.3655	3.5403	2.449
6.853	90.98	94.3637	3.5403	2.472
6.862	91.07	94.3620	3.5402	2.496
6.870	91.16	94.3602	3.5401	2.519
6.878	91.24	94.3585	3.5401	2.542
6.887	91.33	94.3568	3.5400	2.565
6.895	91.42	94.3550	3.5399	2.588
6.903	91.50	94.3533	3.5399	2.611
6.912	91.59	94.3516	3.5398	2.634
6.920	91.68	94.3499	3.5398	2.657
6.928	91.76	94.3482	3.5397	2.680
6.937	91.85	94.3466	3.5396	2.703
6.945	91.93	94.3449	3.5396	2.726
6.953	92.02	94.3433	3.5395	2.749
6.962	92.11	94.3417	3.5394	2.772
6.970	92.19	94.3401	3.5394	2.795
6.978	92.28	94.3385	3.5393	2.818
6.987	92.37	94.3369	3.5393	2.841
6.995	92.45	94.3353	3.5392	2.863
7.003	92.54	94.3337	3.5391	2.886
7.012	92.63	94.3321	3.5391	2.909
7.020	92.71	94.3305	3.5390	2.931
7.028	92.80	94.3289	3.5390	2.954
7.037	92.89	94.3273	3.5389	2.976
7.045	92.97	94.3257	3.5388	2.998
7.053	93.06	94.3242	3.5388	3.020
7.062	93.15	94.3226	3.5387	3.043
7.070	93.23	94.3211	3.5387	3.065
7.078	93.32	94.3196	3.5386	3.087
7.087	93.41	94.3181	3.5386	3.109
7.095	93.49	94.3167	3.5385	3.131
7.103	93.58	94.3152	3.5385	3.153
7.112	93.66	94.3138	3.5384	3.175
7.120	93.75	94.3124	3.5383	3.197
7.128	93.84	94.3110	3.5383	3.219
7.137	93.92	94.3096	3.5382	3.241
7.145	94.01	94.3082	3.5382	3.263
7.153	94.10	94.3068	3.5381	3.285
7.162	94.18	94.3054	3.5381	3.306
7.170	94.27	94.3040	3.5380	3.329
7.178	94.36	94.3027	3.5380	3.351
7.187	94.44	94.3013	3.5379	3.372
7.195	94.53	94.3000	3.5379	3.394
7.203	94.62	94.2986	3.5378	3.416
7.212	94.70	94.2973	3.5378	3.438
7.220	94.79	94.2960	3.5377	3.460
7.228	94.88	94.2946	3.5377	3.483
7.237	94.96	94.2933	3.5376	3.504
7.245	95.05	94.2920	3.5376	3.525
7.253	95.14	94.2906	3.5375	3.546
7.262	95.22	94.2893	3.5375	3.567
7.270	95.31	94.2880	3.5374	3.588
7.278	95.39	94.2867	3.5374	3.609
7.287	95.48	94.2853	3.5373	3.630
7.295	95.57	94.2840	3.5373	3.652
7.303	95.65	94.2828	3.5372	3.672
7.312	95.74	94.2815	3.5372	3.693
7.320	95.83	94.2802	3.5371	3.714
7.328	95.91	94.2789	3.5371	3.735
7.337	96.00	94.2777	3.5370	3.756
7.345	96.09	94.2764	3.5370	3.777
7.353	96.17	94.2752	3.5370	3.798
7.362	96.26	94.2740	3.5369	3.818
7.370	96.34	94.2728	3.5369	3.839
7.378	96.43	94.2716	3.5368	3.860
7.387	96.52	94.2704	3.5368	3.881
7.395	96.60	94.2692	3.5367	3.902
7.403	96.69	94.2681	3.5367	3.923
7.412	96.78	94.2669	3.5366	3.944
7.420	96.86	94.2657	3.5366	3.965
7.428	96.95	94.2646	3.5366	3.987
7.437	97.04	94.2634	3.5365	4.007
7.445	97.12	94.2623	3.5365	4.029
7.453	97.21	94.2611	3.5364	4.050
7.462	97.29	94.2600	3.5364	4.070
7.470	97.38	94.2589	3.5363	4.091
7.478	97.47	94.2578	3.5363	4.112
7.487	97.55	94.2567	3.5363	4.134
7.495	97.64	94.2556	3.5362	4.154
7.503	97.73	94.2545	3.5362	4.175
7.512	97.81	94.2534	3.5361	4.195
7.520	97.90	94.2523	3.5361	4.217
7.528	97.99	94.2513	3.5361	4.238
7.537	98.07	94.2502	3.5360	4.258
7.545	98.16	94.2491	3.5360	4.279
7.553	98.24	94.2480	3.5359	4.300
7.562	98.33	94.2470	3.5359	4.320
7.570	98.42	94.2459	3.5359	4.341
7.578	98.50	94.2449	3.5358	4.362
7.587	98.59	94.2438	3.5358	4.383
7.595	98.68	94.2428	3.5357	4.404
7.603	98.76	94.2417	3.5357	4.424
7.612	98.85	94.2407	3.5357	4.445
7.620	98.94	94.2397	3.5356	4.465
7.628	99.02	94.2387	3.5356	4.485
7.637	99.11	94.2377	3.5355	4.505
7.645	99.19	94.2368	3.5355	4.525
7.653	99.28	94.2358	3.5355	4.546
7.662	99.37	94.2349	3.5354	4.566
7.670	99.45	94.2339	3.5354	4.587
7.678	99.54	94.2330	3.5354	4.606
7.687	99.63	94.2320	3.5353	4.625
7.695	99.71	94.2311	3.5353	4.645
7.703	99.80	94.2302	3.5353	4.665
7.712	99.88	94.2292	3.5352	4.685
7.720	99.97	94.2283	3.5352	4.706
7.728	100.06	94.2274	3.5352	4.726
7.737	100.14	94.2265	3.5351	4.746
7.745	100.23	94.2256	3.5351	4.766
7.753	100.32	94.2247	3.5351	4.786
7.762	100.40	94.2238	3.5350	4.807
7.770	100.49	94.2229	3.5350	4.827
7.778	100.57	94.2220	3.5350	4.846
7.787	100.66	94.2211	3.5349	4.866
7.795	100.75	94.2202	3.5349	4.886
7.803	100.83	94.2193	3.5349	4.905
7.812	100.92	94.2184	3.5348	4.924
7.820	101.00	94.2175	3.5348	4.943
7.828	101.09	94.2167	3.5348	4.963
7.837	101.18	94.2158	3.5347	4.982
7.845	101.26	94.2149	3.5347	5.001
7.853	101.35	94.2141	3.5347	5.020
7.862	101.43	94.2133	3.5346	5.040
7.870	101.52	94.2124	3.5346	5.060
7.878	101.61	94.2116	3.5346	5.079
7.887	101.69	94.2108	3.5345	5.099
7.895	101.78	94.2100	3.5345	5.118
7.903	101.86	94.2092	3.5345	5.137
7.912	101.95	94.2084	3.5344	5.156
7.920	102.04	94.2076	3.5344	5.176
7.928	102.12	94.2069	3.5344	5.195
7.937	102.21	94.2061	3.5344	5.214
7.945	102.29	94.2053	3.5343	5.232
7.953	102.38	94.2046	3.5343	5.251
7.962	102.47	94.2038	3.5343	5.269
7.970	102.55	94.2031	3.5342	5.288
7.978	102.64	94.2023	3.5342	5.308
7.987	102.73	94.2016	3.5342	5.327
7.995	102.81	94.2008	3.5342	5.345
8.003	102.90	94.2000	3.5341	5.364
8.012	102.98	94.1993	3.5341	5.382
8.020	103.07	94.1985	3.5341	5.401
8.028	103.16	94.1978	3.5340	5.421
8.037	103.24	94.1970	3.5340	5.440
8.045	103.33	94.1963	3.5340	5.459
8.053	103.41	94.1956	3.5340	5.478
8.062	103.50	94.1948	3.5339	5.496
8.070	103.59	94.1941	3.5339	5.514
8.078	103.67	94.1934	3.5339	5.533
8.087	103.76	94.1927	3.5339	5.552
8.095	103.84	94.1920	3.5338	5.571
8.103	103.93	94.1913	3.5338	5.589
8.112	104.02	94.1906	3.5338	5.607
8.120	104.10	94.1899	3.5338	5.625
8.128	104.19	94.1892	3.5337	5.643
8.137	104.27	94.1886	3.5337	5.661
8.145	104.36	94.1879	3.5337	5.679
8.153	104.45	94.1872	3.5336	5.698
8.162	104.53	94.1866	3.5336	5.716
8.170	104.62	94.1859	3.5336	5.735
8.178	104.70	94.1852	3.5336	5.753
8.187	104.79	94.1846	3.5335	5.771
8.195	104.88	94.1839	3.5335	5.789
8.203	104.96	94.1833	3.5335	5.808
8.212	105.05	94.1826	3.5335	5.826
8.220	105.13	94.1820	3.5335	5.844
8.228	105.22	94.1813	3.5334	5.862
8.237	105.31	94.1807	3.5334	5.880
8.245	105.39	94.1801	3.5334	5.897
8.253	105.48	94.1795	3.5334	5.913
8.262	105.56	94.1789	3.5333	5.931
8.270	105.65	94.1783	3.5333	5.948
8.278	105.74	94.1776	3.5333	5.966
8.287	105.82	94.1770	3.5333	5.984
8.295	105.91	94.1764	3.5332	6.001
8.303	105.99	94.1758	3.5332	6.019
8.312	106.08	94.1752	3.5332	6.037
8.320	106.16	94.1746	3.5332	6.056
8.328	106.25	94.1740	3.5332	6.073
8.337	106.34	94.1734	3.5331	6.091
8.345	106.42	94.1728	3.5331	6.110
8.353	106.51	94.1722	3.5331	6.128

[step]
Isothermal 30.0 min
Time	Temperature	Weight	Weight	Heat Flow
min	°C	%	mg	mW
8.362	106.59	94.1716	3.5331	6.146
8.387	106.85	94.1699	3.5330	6.199
8.412	107.11	94.1682	3.5329	6.252
8.437	107.37	94.1665	3.5329	6.308
8.462	107.62	94.1650	3.5328	6.363
8.487	107.88	94.1635	3.5328	6.420
8.512	108.13	94.1621	3.5327	6.478
8.537	108.38	94.1608	3.5327	6.539
8.562	108.62	94.1594	3.5326	6.603
8.587	108.86	94.1580	3.5326	6.669
8.612	109.10	94.1565	3.5325	6.735
8.637	109.34	94.1551	3.5324	6.804
8.662	109.57	94.1537	3.5324	6.875
8.687	109.79	94.1522	3.5323	6.948
8.712	110.01	94.1508	3.5323	7.023
8.737	110.22	94.1493	3.5322	7.099
8.762	110.43	94.1477	3.5322	7.178
8.787	110.64	94.1461	3.5321	7.259
8.812	110.83	94.1446	3.5320	7.344
8.837	111.03	94.1431	3.5320	7.429
8.862	111.21	94.1416	3.5319	7.515
8.887	111.39	94.1400	3.5319	7.600
8.912	111.56	94.1384	3.5318	7.687
8.937	111.73	94.1369	3.5318	7.774
8.962	111.89	94.1354	3.5317	7.862
8.987	112.04	94.1339	3.5316	7.950
9.012	112.19	94.1325	3.5316	8.040
9.037	112.33	94.1311	3.5315	8.130
9.062	112.46	94.1298	3.5315	8.222
9.087	112.59	94.1285	3.5314	8.313
9.112	112.71	94.1272	3.5314	8.404
9.137	112.82	94.1260	3.5314	8.495
9.162	112.92	94.1247	3.5313	8.584
9.187	113.01	94.1233	3.5313	8.672
9.212	113.10	94.1219	3.5312	8.759
9.237	113.18	94.1205	3.5311	8.845
9.262	113.26	94.1192	3.5311	8.930
9.287	113.33	94.1179	3.5310	9.013
9.312	113.39	94.1166	3.5310	9.093
9.337	113.45	94.1153	3.5310	9.172
9.362	113.50	94.1139	3.5309	9.248
9.387	113.54	94.1126	3.5309	9.321
9.412	113.59	94.1114	3.5308	9.392
9.437	113.62	94.1101	3.5308	9.461
9.462	113.65	94.1089	3.5307	9.528
9.487	113.68	94.1076	3.5307	9.593
9.512	113.70	94.1063	3.5306	9.655
9.537	113.71	94.1051	3.5306	9.711
9.562	113.73	94.1039	3.5305	9.766
9.587	113.73	94.1028	3.5305	9.818
9.612	113.73	94.1018	3.5304	9.870
9.637	113.73	94.1006	3.5304	9.919
9.662	113.73	94.0994	3.5304	9.966
9.687	113.72	94.0982	3.5303	10.010
9.712	113.71	94.0970	3.5303	10.049
9.737	113.69	94.0958	3.5302	10.088
9.762	113.67	94.0946	3.5302	10.123
9.787	113.65	94.0934	3.5301	10.158
9.812	113.62	94.0924	3.5301	10.193
9.837	113.59	94.0913	3.5301	10.224
9.862	113.56	94.0903	3.5300	10.250
9.887	113.52	94.0891	3.5300	10.274
9.912	113.48	94.0879	3.5299	10.294
9.937	113.45	94.0867	3.5299	10.313
9.962	113.41	94.0855	3.5298	10.328
9.987	113.37	94.0845	3.5298	10.339
10.012	113.33	94.0835	3.5298	10.350
10.037	113.28	94.0826	3.5297	10.358
10.062	113.24	94.0817	3.5297	10.365
10.087	113.20	94.0809	3.5297	10.369
10.112	113.16	94.0801	3.5296	10.372
10.137	113.11	94.0793	3.5296	10.373
10.162	113.07	94.0785	3.5296	10.374
10.187	113.03	94.0777	3.5295	10.375
10.212	112.98	94.0770	3.5295	10.374
10.237	112.94	94.0764	3.5295	10.371
10.262	112.90	94.0758	3.5295	10.367
10.287	112.86	94.0753	3.5295	10.360
10.312	112.81	94.0749	3.5294	10.352
10.337	112.77	94.0745	3.5294	10.341
10.362	112.73	94.0740	3.5294	10.328
10.387	112.69	94.0735	3.5294	10.313
10.412	112.65	94.0729	3.5294	10.297
10.437	112.61	94.0724	3.5293	10.282
10.462	112.58	94.0719	3.5293	10.266
10.487	112.54	94.0714	3.5293	10.248
10.512	112.50	94.0709	3.5293	10.230
10.537	112.47	94.0705	3.5293	10.213
10.562	112.44	94.0700	3.5293	10.195
10.587	112.40	94.0696	3.5292	10.178
10.612	112.37	94.0692	3.5292	10.158
10.637	112.34	94.0689	3.5292	10.139
10.662	112.31	94.0688	3.5292	10.120
10.687	112.28	94.0687	3.5292	10.101
10.712	112.26	94.0685	3.5292	10.084
10.737	112.23	94.0684	3.5292	10.066
10.762	112.21	94.0682	3.5292	10.047
10.787	112.18	94.0680	3.5292	10.028
10.812	112.16	94.0678	3.5292	10.008
10.837	112.14	94.0675	3.5292	9.989
10.862	112.12	94.0673	3.5291	9.973
10.887	112.10	94.0671	3.5291	9.955
10.912	112.09	94.0669	3.5291	9.937
10.937	112.07	94.0668	3.5291	9.919
10.962	112.06	94.0666	3.5291	9.902
10.987	112.05	94.0664	3.5291	9.885
11.012	112.03	94.0662	3.5291	9.868
11.037	112.02	94.0660	3.5291	9.853
11.062	112.02	94.0659	3.5291	9.839
11.087	112.01	94.0659	3.5291	9.825
11.112	112.00	94.0658	3.5291	9.810
11.137	112.00	94.0658	3.5291	9.795
11.162	112.00	94.0657	3.5291	9.782
11.187	111.99	94.0656	3.5291	9.769
11.212	111.99	94.0655	3.5291	9.757
11.237	111.99	94.0655	3.5291	9.745
11.262	111.99	94.0653	3.5291	9.732
11.287	111.99	94.0652	3.5291	9.719
11.312	112.00	94.0650	3.5291	9.706
11.337	112.00	94.0649	3.5291	9.692
11.362	112.01	94.0648	3.5291	9.678
11.387	112.01	94.0647	3.5291	9.666
11.412	112.02	94.0648	3.5291	9.656
11.437	112.03	94.0647	3.5291	9.648
11.462	112.04	94.0648	3.5291	9.641
11.487	112.05	94.0647	3.5291	9.635
11.512	112.06	94.0647	3.5291	9.630
11.537	112.07	94.0648	3.5291	9.624
11.562	112.08	94.0648	3.5291	9.618
11.587	112.09	94.0648	3.5291	9.611
11.612	112.10	94.0649	3.5291	9.605
11.637	112.12	94.0649	3.5291	9.599
11.662	112.13	94.0649	3.5291	9.595
11.687	112.15	94.0648	3.5291	9.592
11.712	112.16	94.0647	3.5291	9.589
11.737	112.18	94.0647	3.5291	9.586
11.762	112.19	94.0646	3.5291	9.583
11.787	112.21	94.0646	3.5290	9.580
11.812	112.23	94.0645	3.5290	9.577
11.837	112.25	94.0643	3.5290	9.574
11.862	112.26	94.0642	3.5290	9.572
11.887	112.28	94.0641	3.5290	9.571
11.912	112.30	94.0640	3.5290	9.569
11.937	112.32	94.0639	3.5290	9.568
11.962	112.34	94.0639	3.5290	9.567
11.987	112.36	94.0639	3.5290	9.566
12.012	112.38	94.0638	3.5290	9.566
12.037	112.40	94.0638	3.5290	9.566
12.062	112.42	94.0638	3.5290	9.567
12.087	112.43	94.0638	3.5290	9.567
12.112	112.45	94.0639	3.5290	9.568
12.137	112.47	94.0639	3.5290	9.569
12.162	112.49	94.0639	3.5290	9.571
12.187	112.51	94.0638	3.5290	9.573
12.212	112.53	94.0637	3.5290	9.575
12.237	112.55	94.0636	3.5290	9.578
12.262	112.57	94.0636	3.5290	9.582
12.287	112.59	94.0635	3.5290	9.585
[...]
169.212	949.87	-0.4925	-0.0185	43.420
169.237	949.87	-0.4928	-0.0185	43.428
169.262	949.87	-0.4930	-0.0185	43.437
169.287	949.87	-0.4932	-0.0185	43.445
169.312	949.87	-0.4933	-0.0185	43.453
169.337	949.87	-0.4935	-0.0185	43.461
169.362	949.87	-0.4936	-0.0185	43.470
169.387	949.87	-0.4936	-0.0185	43.479
169.412	949.87	-0.4938	-0.0185	43.489
169.437	949.87	-0.4940	-0.0185	43.499
169.462	949.87	-0.4942	-0.0185	43.509
169.487	949.87	-0.4944	-0.0185	43.518
169.512	949.87	-0.4945	-0.0186	43.525
169.537	949.87	-0.4947	-0.0186	43.531
169.562	949.87	-0.4949	-0.0186	43.538
169.587	949.87	-0.4951	-0.0186	43.545
169.612	949.87	-0.4953	-0.0186	43.552
169.637	949.87	-0.4954	-0.0186	43.560
169.662	949.87	-0.4956	-0.0186	43.571
169.687	949.87	-0.4957	-0.0186	43.585
169.712	949.88	-0.4959	-0.0186	43.597
169.737	949.88	-0.4961	-0.0186	43.608
169.762	949.87	-0.4962	-0.0186	43.614
169.787	949.88	-0.4964	-0.0186	43.620
169.812	949.88	-0.4965	-0.0186	43.628
169.837	949.88	-0.4966	-0.0186	43.636
169.862	949.88	-0.4967	-0.0186	43.645
169.887	949.88	-0.4968	-0.0186	43.654
169.912	949.88	-0.4969	-0.0186	43.665
169.937	949.88	-0.4970	-0.0186	43.674
169.962	949.88	-0.4972	-0.0187	43.683
169.987	949.88	-0.4973	-0.0187	43.690
170.012	949.88	-0.4975	-0.0187	43.697
170.037	949.88	-0.4977	-0.0187	43.704
170.062	949.88	-0.4980	-0.0187	43.711
170.087	949.88	-0.4982	-0.0187	43.720
170.112	949.88	-0.4985	-0.0187	43.731
170.137	949.88	-0.4987	-0.0187	43.743
170.162	949.88	-0.4989	-0.0187	43.752
170.187	949.88	-0.4992	-0.0187	43.761
170.212	949.88	-0.4995	-0.0187	43.768
170.237	949.88	-0.4997	-0.0187	43.775
170.262	949.88	-0.5000	-0.0188	43.783
170.287	949.88	-0.5002	-0.0188	43.791
170.312	949.88	-0.5004	-0.0188	43.801
170.337	949.88	-0.5005	-0.0188	43.810
170.362	949.88	-0.5007	-0.0188	43.819
170.387	949.88	-0.5009	-0.0188	43.828
170.412	949.88	-0.5011	-0.0188	43.837
170.437	949.88	-0.5013	-0.0188	43.847
170.462	949.88	-0.5015	-0.0188	43.856
170.487	949.88	-0.5017	-0.0188	43.865
170.512	949.88	-0.5019	-0.0188	43.873
170.537	949.88	-0.5021	-0.0188	43.883
170.562	949.88	-0.5023	-0.0188	43.894
170.587	949.88	-0.5025	-0.0189	43.908
170.612	949.88	-0.5026	-0.0189	43.921
170.637	949.88	-0.5027	-0.0189	43.932
170.662	949.88	-0.5029	-0.0189	43.946
170.687	949.88	-0.5031	-0.0189	43.961
170.712	949.88	-0.5033	-0.0189	43.977
170.737	949.88	-0.5034	-0.0189	43.990
170.762	949.88	-0.5035	-0.0189	43.999
170.787	949.88	-0.5036	-0.0189	44.007
170.812	949.88	-0.5038	-0.0189	44.013
170.837	949.88	-0.5039	-0.0189	44.020
170.862	949.88	-0.5041	-0.0189	44.027
170.887	949.88	-0.5042	-0.0189	44.033
170.912	949.88	-0.5043	-0.0189	44.043
170.937	949.88	-0.5046	-0.0189	44.053
170.962	949.88	-0.5049	-0.0189	44.064
170.987	949.88	-0.5053	-0.0190	44.074
171.012	949.88	-0.5056	-0.0190	44.084
171.037	949.88	-0.5059	-0.0190	44.095
171.062	949.88	-0.5062	-0.0190	44.106
171.087	949.89	-0.5065	-0.0190	44.116
171.112	949.89	-0.5069	-0.0190	44.127
171.137	949.89	-0.5071	-0.0190	44.136
171.162	949.89	-0.5073	-0.0190	44.147
171.187	949.89	-0.5074	-0.0190	44.161
171.212	949.89	-0.5075	-0.0190	44.174
171.237	949.89	-0.5077	-0.0190	44.188
171.262	949.89	-0.5078	-0.0190	44.199
171.287	949.89	-0.5079	-0.0191	44.208
171.312	949.89	-0.5081	-0.0191	44.216
171.337	949.89	-0.5083	-0.0191	44.223
171.362	949.89	-0.5084	-0.0191	44.230
171.387	949.89	-0.5086	-0.0191	44.237
171.412	949.89	-0.5088	-0.0191	44.246
171.437	949.89	-0.5091	-0.0191	44.255
171.462	949.89	-0.5093	-0.0191	44.266
171.487	949.89	-0.5095	-0.0191	44.276
171.512	949.89	-0.5097	-0.0191	44.285
171.537	949.89	-0.5099	-0.0191	44.294
171.562	949.89	-0.5100	-0.0191	44.302
171.587	949.89	-0.5100	-0.0191	44.310
171.612	949.89	-0.5101	-0.0191	44.318
171.637	949.89	-0.5102	-0.0191	44.327
171.662	949.89	-0.5102	-0.0191	44.335
171.687	949.89	-0.5103	-0.0191	44.343
171.712	949.89	-0.5104	-0.0191	44.351
171.737	949.89	-0.5106	-0.0192	44.360
171.762	949.89	-0.5108	-0.0192	44.372
171.787	949.89	-0.5109	-0.0192	44.383
171.812	949.89	-0.5111	-0.0192	44.393
171.837	949.89	-0.5113	-0.0192	44.399
171.862	949.89	-0.5115	-0.0192	44.404
171.887	949.89	-0.5117	-0.0192	44.408
171.912	949.89	-0.5119	-0.0192	44.412
171.937	949.89	-0.5122	-0.0192	44.418
171.962	949.89	-0.5123	-0.0192	44.425
171.987	949.89	-0.5125	-0.0192	44.434
172.012	949.89	-0.5128	-0.0192	44.445
172.037	949.89	-0.5131	-0.0192	44.457
172.062	949.89	-0.5133	-0.0193	44.468
172.087	949.89	-0.5135	-0.0193	44.480
172.112	949.89	-0.5137	-0.0193	44.491
172.137	949.89	-0.5139	-0.0193	44.502
172.162	949.89	-0.5141	-0.0193	44.512
172.187	949.89	-0.5144	-0.0193	44.522
172.212	949.89	-0.5146	-0.0193	44.532
172.237	949.89	-0.5147	-0.0193	44.542
172.262	949.89	-0.5149	-0.0193	44.553
172.287	949.89	-0.5150	-0.0193	44.565
172.312	949.90	-0.5151	-0.0193	44.578
172.337	949.90	-0.5153	-0.0193	44.589
172.362	949.90	-0.5153	-0.0193	44.598
172.387	949.90	-0.5154	-0.0193	44.606
172.412	949.90	-0.5154	-0.0193	44.615
172.437	949.90	-0.5155	-0.0193	44.624
172.462	949.90	-0.5157	-0.0193	44.633
172.487	949.90	-0.5158	-0.0194	44.641
172.512	949.90	-0.5160	-0.0194	44.648
172.537	949.90	-0.5161	-0.0194	44.657
172.562	949.90	-0.5162	-0.0194	44.667
172.587	949.90	-0.5163	-0.0194	44.676
172.612	949.90	-0.5165	-0.0194	44.685
172.637	949.90	-0.5167	-0.0194	44.693
172.662	949.90	-0.5168	-0.0194	44.701
172.687	949.90	-0.5169	-0.0194	44.708
172.712	949.90	-0.5170	-0.0194	44.717
172.737	949.90	-0.5172	-0.0194	44.727
172.762	949.90	-0.5174	-0.0194	44.737
172.787	949.90	-0.5177	-0.0194	44.747
172.812	949.90	-0.5180	-0.0194	44.754
172.837	949.90	-0.5182	-0.0194	44.762
172.862	949.90	-0.5185	-0.0195	44.771
172.887	949.90	-0.5187	-0.0195	44.781
172.912	949.90	-0.5189	-0.0195	44.791
172.937	949.90	-0.5190	-0.0195	44.801
172.962	949.90	-0.5192	-0.0195	44.810
172.987	949.90	-0.5194	-0.0195	44.820
173.012	949.90	-0.5196	-0.0195	44.830
173.037	949.90	-0.5198	-0.0195	44.841
173.062	949.90	-0.5200	-0.0195	44.853
173.087	949.90	-0.5201	-0.0195	44.865
173.112	949.90	-0.5203	-0.0195	44.878
173.137	949.90	-0.5204	-0.0195	44.892
173.162	949.90	-0.5205	-0.0195	44.907
173.187	949.90	-0.5206	-0.0195	44.919
173.212	949.90	-0.5207	-0.0195	44.927
173.237	949.90	-0.5208	-0.0195	44.934
173.262	949.90	-0.5210	-0.0195	44.941
173.287	949.90	-0.5212	-0.0196	44.950
173.312	949.90	-0.5214	-0.0196	44.961
173.337	949.90	-0.5215	-0.0196	44.971
173.362	949.90	-0.5216	-0.0196	44.982
173.387	949.90	-0.5218	-0.0196	44.992
173.412	949.91	-0.5220	-0.0196	45.002
173.437	949.90	-0.5221	-0.0196	45.010
173.462	949.91	-0.5223	-0.0196	45.018
173.487	949.90	-0.5224	-0.0196	45.026
173.512	949.91	-0.5226	-0.0196	45.033
173.537	949.91	-0.5228	-0.0196	45.038
173.562	949.91	-0.5230	-0.0196	45.042
173.587	949.91	-0.5232	-0.0196	45.045
173.612	949.91	-0.5234	-0.0196	45.049
173.637	949.91	-0.5236	-0.0196	45.054
173.662	949.91	-0.5237	-0.0196	45.059
173.687	949.91	-0.5238	-0.0197	45.067
173.712	949.91	-0.5239	-0.0197	45.075
173.737	949.91	-0.5241	-0.0197	45.084
173.762	949.91	-0.5243	-0.0197	45.095
173.787	949.91	-0.5245	-0.0197	45.105
173.812	949.91	-0.5247	-0.0197	45.118
173.837	949.91	-0.5248	-0.0197	45.129
173.862	949.91	-0.5250	-0.0197	45.142
173.887	949.91	-0.5252	-0.0197	45.155
173.912	949.91	-0.5254	-0.0197	45.167
173.937	949.91	-0.5256	-0.0197	45.179
173.962	949.91	-0.5257	-0.0197	45.190
173.987	949.91	-0.5258	-0.0197	45.203
174.012	949.91	-0.5258	-0.0197	45.217
174.037	949.91	-0.5259	-0.0197	45.230
174.062	949.91	-0.5260	-0.0197	45.240
174.087	949.91	-0.5262	-0.0197	45.249
174.112	949.91	-0.5264	-0.0197	45.259
174.137	949.91	-0.5266	-0.0198	45.271
174.162	949.91	-0.5268	-0.0198	45.285
174.187	949.91	-0.5269	-0.0198	45.299
174.212	949.91	-0.5271	-0.0198	45.310
174.237	949.91	-0.5274	-0.0198	45.319
174.262	949.91	-0.5277	-0.0198	45.326
174.287	949.91	-0.5279	-0.0198	45.334
174.312	949.91	-0.5281	-0.0198	45.344
174.337	949.91	-0.5283	-0.0198	45.354
174.362	949.91	-0.5285	-0.0198	45.362
174.387	949.91	-0.5287	-0.0198	45.370
174.412	949.91	-0.5289	-0.0198	45.377
174.437	949.91	-0.5292	-0.0199	45.385
174.462	949.91	-0.5294	-0.0199	45.394
174.487	949.91	-0.5296	-0.0199	45.402
174.512	949.91	-0.5299	-0.0199	45.409
174.537	949.91	-0.5301	-0.0199	45.417
174.562	949.91	-0.5303	-0.0199	45.425
174.587	949.91	-0.5304	-0.0199	45.432
174.612	949.91	-0.5306	-0.0199	45.439
174.637	949.91	-0.5308	-0.0199	45.445
174.662	949.92	-0.5310	-0.0199	45.451
174.687	949.92	-0.5312	-0.0199	45.458
174.712	949.92	-0.5315	-0.0199	45.467
174.737	949.92	-0.5319	-0.0200	45.477
174.762	949.92	-0.5321	-0.0200	45.488
174.787	949.92	-0.5323	-0.0200	45.497
174.812	949.92	-0.5324	-0.0200	45.505
174.837	949.92	-0.5325	-0.0200	45.513
174.862	949.92	-0.5327	-0.0200	45.521
174.887	949.92	-0.5328	-0.0200	45.530
174.912	949.92	-0.5330	-0.0200	45.539
174.937	949.92	-0.5331	-0.0200	45.550
174.962	949.92	-0.5333	-0.0200	45.560
174.987	949.92	-0.5334	-0.0200	45.569
175.012	949.92	-0.5335	-0.0200	45.576
175.037	949.92	-0.5336	-0.0200	45.582
175.062	949.92	-0.5336	-0.0200	45.587
175.087	949.92	-0.5337	-0.0200	45.592
175.112	949.92	-0.5338	-0.0200	45.597
175.137	949.92	-0.5339	-0.0200	45.604
175.162	949.92	-0.5341	-0.0200	45.612
175.187	949.92	-0.5342	-0.0200	45.619
175.212	949.92	-0.5343	-0.0200	45.625
175.237	949.92	-0.5346	-0.0201	45.631
175.262	949.92	-0.5348	-0.0201	45.637
175.287	949.92	-0.5351	-0.0201	45.645
175.312	949.92	-0.5354	-0.0201	45.654
175.337	949.92	-0.5356	-0.0201	45.664
175.362	949.92	-0.5357	-0.0201	45.675
175.387	949.92	-0.5359	-0.0201	45.685
175.412	949.92	-0.5360	-0.0201	45.693
175.437	949.92	-0.5361	-0.0201	45.699
175.462	949.92	-0.5361	-0.0201	45.708
175.487	949.92	-0.5361	-0.0201	45.716
175.512	949.92	-0.5361	-0.0201	45.726
175.537	949.92	-0.5362	-0.0201	45.734
175.562	949.92	-0.5363	-0.0201	45.741
175.587	949.92	-0.5365	-0.0201	45.747
175.612	949.92	-0.5367	-0.0201	45.751
175.637	949.92	-0.5369	-0.0201	45.758
175.662	949.92	-0.5371	-0.0202	45.767
175.687	949.92	-0.5373	-0.0202	45.777
175.712	949.92	-0.5375	-0.0202	45.786
175.737	949.92	-0.5376	-0.0202	45.792
175.762	949.92	-0.5377	-0.0202	45.798
175.787	949.92	-0.5379	-0.0202	45.805
175.812	949.92	-0.5380	-0.0202	45.810
175.837	949.92	-0.5382	-0.0202	45.816
175.862	949.92	-0.5385	-0.0202	45.821
175.887	949.92	-0.5387	-0.0202	45.826
175.912	949.92	-0.5389	-0.0202	45.831
175.937	949.92	-0.5391	-0.0202	45.838
175.962	949.92	-0.5393	-0.0202	45.843
175.987	949.92	-0.5396	-0.0202	45.850
176.012	949.93	-0.5399	-0.0203	45.854
176.037	949.93	-0.5401	-0.0203	45.859
176.062	949.93	-0.5403	-0.0203	45.866
176.087	949.93	-0.5405	-0.0203	45.874
176.112	949.93	-0.5407	-0.0203	45.884
176.137	949.93	-0.5408	-0.0203	45.893
176.162	949.93	-0.5409	-0.0203	45.902
176.187	949.93	-0.5410	-0.0203	45.910
176.212	949.93	-0.5411	-0.0203	45.917
176.237	949.93	-0.5412	-0.0203	45.923
176.262	949.93	-0.5414	-0.0203	45.929
176.287	949.93	-0.5416	-0.0203	45.934
176.312	949.93	-0.5418	-0.0203	45.940
176.337	949.93	-0.5419	-0.0203	45.945
176.362	949.93	-0.5421	-0.0203	45.950
176.387	949.93	-0.5423	-0.0203	45.955
176.412	949.93	-0.5425	-0.0204	45.959
176.437	949.93	-0.5427	-0.0204	45.963
176.462	949.93	-0.5429	-0.0204	45.969
176.487	949.93	-0.5432	-0.0204	45.975
176.512	949.93	-0.5435	-0.0204	45.984
176.537	949.93	-0.5438	-0.0204	45.992
176.562	949.93	-0.5440	-0.0204	45.999
176.587	949.93	-0.5442	-0.0204	46.005
176.612	949.93	-0.5443	-0.0204	46.011
176.637	949.93	-0.5445	-0.0204	46.018
176.662	949.93	-0.5446	-0.0204	46.026
176.687	949.93	-0.5448	-0.0204	46.034
176.712	949.93	-0.5450	-0.0204	46.042
176.737	949.93	-0.5451	-0.0205	46.050
176.762	949.93	-0.5453	-0.0205	46.058
176.787	949.93	-0.5455	-0.0205	46.067
176.812	949.93	-0.5458	-0.0205	46.077
176.837	949.93	-0.5460	-0.0205	46.087
176.862	949.93	-0.5462	-0.0205	46.095
176.887	949.93	-0.5464	-0.0205	46.104
176.912	949.93	-0.5465	-0.0205	46.112
176.937	949.93	-0.5467	-0.0205	46.120
176.962	949.93	-0.5468	-0.0205	46.129
176.987	949.93	-0.5469	-0.0205	46.138
177.012	949.93	-0.5471	-0.0205	46.147
177.037	949.93	-0.5472	-0.0205	46.156
177.062	949.93	-0.5474	-0.0205	46.166
177.087	949.93	-0.5476	-0.0205	46.175
177.112	949.93	-0.5478	-0.0206	46.184
177.137	949.93	-0.5480	-0.0206	46.193
177.162	949.93	-0.5482	-0.0206	46.202
177.187	949.93	-0.5484	-0.0206	46.212
177.212	949.93	-0.5485	-0.0206	46.221
177.237	949.93	-0.5488	-0.0206	46.232
177.262	949.93	-0.5490	-0.0206	46.244
177.287	949.93	-0.5493	-0.0206	46.257
177.312	949.93	-0.5494	-0.0206	46.269
177.337	949.93	-0.5495	-0.0206	46.279
177.362	949.93	-0.5496	-0.0206	46.288
177.387	949.93	-0.5497	-0.0206	46.296
177.412	949.93	-0.5499	-0.0206	46.305
177.437	949.93	-0.5500	-0.0206	46.316
177.462	949.93	-0.5500	-0.0206	46.327
177.487	949.93	-0.5501	-0.0206	46.337
177.512	949.93	-0.5501	-0.0206	46.346
177.537	949.93	-0.5503	-0.0206	46.353
177.562	949.93	-0.5505	-0.0207	46.360
177.587	949.93	-0.5508	-0.0207	46.367
177.612	949.93	-0.5511	-0.0207	46.374
177.637	949.93	-0.5513	-0.0207	46.382
177.662	949.94	-0.5515	-0.0207	46.390
177.687	949.94	-0.5517	-0.0207	46.398
177.712	949.94	-0.5519	-0.0207	46.404
177.737	949.94	-0.5521	-0.0207	46.410
177.762	949.94	-0.5523	-0.0207	46.418
177.787	949.94	-0.5526	-0.0207	46.427
177.812	949.94	-0.5528	-0.0207	46.436
177.837	949.94	-0.5530	-0.0207	46.444
177.862	949.94	-0.5532	-0.0208	46.450
177.887	949.94	-0.5534	-0.0208	46.457
177.912	949.94	-0.5537	-0.0208	46.464
177.937	949.94	-0.5538	-0.0208	46.470
177.962	949.94	-0.5540	-0.0208	46.476
177.987	949.94	-0.5541	-0.0208	46.482
178.012	949.94	-0.5543	-0.0208	46.489
178.037	949.94	-0.5545	-0.0208	46.496
178.062	949.94	-0.5546	-0.0208	46.504
178.087	949.94	-0.5547	-0.0208	46.511
178.112	949.94	-0.5549	-0.0208	46.517
178.137	949.94	-0.5550	-0.0208	46.524
178.162	949.94	-0.5552	-0.0208	46.531
178.187	949.94	-0.5553	-0.0208	46.539
178.212	949.94	-0.5554	-0.0208	46.547
178.237	949.94	-0.5555	-0.0208	46.554
178.262	949.94	-0.5557	-0.0208	46.560
178.287	949.94	-0.5559	-0.0209	46.566
178.312	949.94	-0.5560	-0.0209	46.572
178.337	949.94	-0.5562	-0.0209	46.579
178.362	949.94	-0.5564	-0.0209	46.586
178.387	949.94	-0.5567	-0.0209	46.593
178.412	949.94	-0.5569	-0.0209	46.600
178.437	949.94	-0.5571	-0.0209	46.605
178.462	949.94	-0.5573	-0.0209	46.614
178.487	949.94	-0.5575	-0.0209	46.622
178.512	949.94	-0.5577	-0.0209	46.631
178.537	949.94	-0.5578	-0.0209	46.638
178.562	949.94	-0.5579	-0.0209	46.647
178.587	949.94	-0.5581	-0.0209	46.658
178.612	949.94	-0.5583	-0.0209	46.669
178.637	949.94	-0.5586	-0.0210	46.679
178.662	949.94	-0.5589	-0.0210	46.686
178.687	949.94	-0.5591	-0.0210	46.693
178.712	949.94	-0.5593	-0.0210	46.698
178.737	949.94	-0.5595	-0.0210	46.704
178.762	949.94	-0.5596	-0.0210	46.709
178.787	949.94	-0.5598	-0.0210	46.715
178.812	949.94	-0.5599	-0.0210	46.720
178.837	949.94	-0.5600	-0.0210	46.725
178.862	949.94	-0.5602	-0.0210	46.729
178.887	949.94	-0.5604	-0.0210	46.734
178.912	949.94	-0.5606	-0.0210	46.738
178.937	949.95	-0.5607	-0.0210	46.743
178.962	949.94	-0.5608	-0.0210	46.747
178.987	949.95	-0.5609	-0.0210	46.751
179.012	949.95	-0.5611	-0.0210	46.755
179.037	949.95	-0.5613	-0.0211	46.759
179.062	949.95	-0.5615	-0.0211	46.762
179.087	949.95	-0.5618	-0.0211	46.767
179.112	949.95	-0.5620	-0.0211	46.772
179.137	949.95	-0.5622	-0.0211	46.777
179.162	949.95	-0.5624	-0.0211	46.785
179.187	949.95	-0.5626	-0.0211	46.793
179.212	949.95	-0.5629	-0.0211	46.801
179.237	949.95	-0.5632	-0.0211	46.807
179.262	949.95	-0.5634	-0.0211	46.812
179.287	949.95	-0.5635	-0.0211	46.817
179.312	949.95	-0.5637	-0.0211	46.823
179.337	949.95	-0.5638	-0.0212	46.829
179.362	949.95	-0.5639	-0.0212	46.834
179.387	949.95	-0.5641	-0.0212	46.839
179.412	949.95	-0.5642	-0.0212	46.845
179.437	949.95	-0.5644	-0.0212	46.850
179.462	949.95	-0.5645	-0.0212	46.858
179.487	949.95	-0.5646	-0.0212	46.866
179.512	949.95	-0.5647	-0.0212	46.877
179.537	949.95	-0.5648	-0.0212	46.885
179.562	949.95	-0.5649	-0.0212	46.894
179.587	949.95	-0.5650	-0.0212	46.901
179.612	949.95	-0.5651	-0.0212	46.909
179.637	949.95	-0.5653	-0.0212	46.917
179.662	949.95	-0.5653	-0.0212	46.924
179.687	949.95	-0.5654	-0.0212	46.931
179.712	949.95	-0.5655	-0.0212	46.938
179.737	949.95	-0.5656	-0.0212	46.944
179.762	949.95	-0.5658	-0.0212	46.950
179.787	949.95	-0.5660	-0.0212	46.957
179.812	949.95	-0.5663	-0.0212	46.964
179.837	949.95	-0.5666	-0.0213	46.971
179.862	949.95	-0.5668	-0.0213	46.978
179.887	949.95	-0.5669	-0.0213	46.982
179.912	949.95	-0.5670	-0.0213	46.988
179.937	949.95	-0.5670	-0.0213	46.994
179.962	949.95	-0.5671	-0.0213	46.999
179.987	949.95	-0.5672	-0.0213	47.005
180.012	949.95	-0.5674	-0.0213	47.013
180.037	949.95	-0.5675	-0.0213	47.022
180.062	949.95	-0.5677	-0.0213	47.031
180.087	949.95	-0.5679	-0.0213	47.039
180.112	949.95	-0.5681	-0.0213	47.044
180.137	949.95	-0.5682	-0.0213	47.048
180.162	949.95	-0.5684	-0.0213	47.053
180.187	949.95	-0.5685	-0.0213	47.057
180.212	949.95	-0.5686	-0.0213	47.062
180.237	949.95	-0.5687	-0.0213	47.068
180.262	949.95	-0.5688	-0.0213	47.074
180.287	949.95	-0.5688	-0.0213	47.081
180.312	949.95	-0.5689	-0.0213	47.088
180.337	949.95	-0.5690	-0.0213	47.098
180.362	949.95	-0.5692	-0.0214	47.108
180.387	949.95	-0.5693	-0.0214	47.115
180.412	949.95	-0.5694	-0.0214	47.121
180.437	949.95	-0.5696	-0.0214	47.125
180.462	949.95	-0.5698	-0.0214	47.130
180.487	949.95	-0.5700	-0.0214	47.136
180.512	949.95	-0.5701	-0.0214	47.142
180.537	949.95	-0.5703	-0.0214	47.149
180.562	949.95	-0.5705	-0.0214	47.155
180.587	949.95	-0.5707	-0.0214	47.161
180.612	949.95	-0.5708	-0.0214	47.166
180.637	949.95	-0.5710	-0.0214	47.170
180.662	949.95	-0.5710	-0.0214	47.175
180.687	949.95	-0.5710	-0.0214	47.181
180.712	949.95	-0.5711	-0.0214	47.189
180.737	949.95	-0.5712	-0.0214	47.195
180.762	949.95	-0.5713	-0.0214	47.201
180.787	949.95	-0.5715	-0.0214	47.207
180.812	949.96	-0.5716	-0.0214	47.212
180.837	949.96	-0.5717	-0.0215	47.218
180.862	949.96	-0.5719	-0.0215	47.224
180.887	949.96	-0.5722	-0.0215	47.231
180.912	949.96	-0.5725	-0.0215	47.239
180.937	949.96	-0.5728	-0.0215	47.247
180.962	949.96	-0.5732	-0.0215	47.256
180.987	949.96	-0.5734	-0.0215	47.264
181.012	949.96	-0.5736	-0.0215	47.270
181.037	949.96	-0.5738	-0.0215	47.273
181.062	949.96	-0.5739	-0.0215	47.276
181.087	949.96	-0.5740	-0.0215	47.277
181.112	949.96	-0.5741	-0.0215	47.280
181.137	949.96	-0.5741	-0.0215	47.284
181.162	949.96	-0.5741	-0.0215	47.287
181.187	949.96	-0.5742	-0.0215	47.291
181.212	949.96	-0.5742	-0.0215	47.294
181.237	949.96	-0.5744	-0.0215	47.298
181.262	949.96	-0.5745	-0.0216	47.304
181.287	949.96	-0.5746	-0.0216	47.311
181.312	949.96	-0.5747	-0.0216	47.318
181.337	949.96	-0.5748	-0.0216	47.325
181.362	949.96	-0.5749	-0.0216	47.331
181.387	949.96	-0.5750	-0.0216	47.337
181.412	949.96	-0.5752	-0.0216	47.342
181.437	949.96	-0.5754	-0.0216	47.348
181.462	949.96	-0.5756	-0.0216	47.355
181.487	949.96	-0.5759	-0.0216	47.362
181.512	949.96	-0.5760	-0.0216	47.370
181.537	949.96	-0.5761	-0.0216	47.377
181.562	949.96	-0.5763	-0.0216	47.384
181.587	949.96	-0.5764	-0.0216	47.391
181.612	949.96	-0.5765	-0.0216	47.399
181.637	949.96	-0.5767	-0.0216	47.407
181.662	949.96	-0.5768	-0.0216	47.417
181.687	949.96	-0.5770	-0.0216	47.425
181.712	949.96	-0.5771	-0.0216	47.432
181.737	949.96	-0.5771	-0.0217	47.436
181.762	949.96	-0.5772	-0.0217	47.439
181.787	949.96	-0.5773	-0.0217	47.442
181.812	949.96	-0.5775	-0.0217	47.445
181.837	949.96	-0.5777	-0.0217	47.448
181.862	949.96	-0.5778	-0.0217	47.452
181.887	949.96	-0.5780	-0.0217	47.458
181.912	949.96	-0.5782	-0.0217	47.464
181.937	949.96	-0.5784	-0.0217	47.469
181.962	949.96	-0.5785	-0.0217	47.473
181.987	949.96	-0.5787	-0.0217	47.476
182.012	949.96	-0.5789	-0.0217	47.480
182.037	949.96	-0.5790	-0.0217	47.484
182.062	949.96	-0.5792	-0.0217	47.488
182.087	949.96	-0.5793	-0.0217	47.494
182.112	949.96	-0.5795	-0.0217	47.500
182.137	949.96	-0.5796	-0.0217	47.506
182.162	949.96	-0.5798	-0.0218	47.511
182.187	949.96	-0.5799	-0.0218	47.515
182.212	949.96	-0.5800	-0.0218	47.519
182.237	949.96	-0.5801	-0.0218	47.523
182.262	949.96	-0.5802	-0.0218	47.526
182.287	949.96	-0.5802	-0.0218	47.530
182.312	949.96	-0.5802	-0.0218	47.533
182.337		-0.5803	-0.0218
182.353		-0.5804	-0.0218