File: example/proximate_analysis/MIS_3.txt
Time	Temperature	Weight	Weight	Heat Flow
min	Â°C	%	mg	mW
0.003		99.9860	9.9227
0.012		99.9791	9.9220
0.020		99.9805	9.9221
0.028		99.9849	9.9226
0.037		99.9904	9.9231
0.045	21.91	99.9962	9.9237	-17.331
0.053	21.91	100.0022	9.9243	-17.335
0.062	21.91	100.0082	9.9249	-17.340
0.070	21.91	100.0140	9.9254	-17.346
0.078	21.91	100.0194	9.9260	-17.354
0.087	21.91	100.0231	9.9264	-17.364
0.095	21.91	100.0251	9.9265	-17.374
0.103	21.91	100.0263	9.9267	-17.386
0.112	21.90	100.0273	9.9268	-17.397
0.120	21.90	100.0279	9.9268	-17.408
0.128	21.90	100.0283	9.9269	-17.420
0.137	21.90	100.0284	9.9269	-17.431
0.145	21.90	100.0284	9.9269	-17.443
0.153	21.90	100.0282	9.9269	-17.454
0.162	21.90	100.0277	9.9268	-17.464
0.170	21.90	100.0272	9.9268	-17.475
0.178	21.90	100.0264	9.9267	-17.486
0.187	21.90	100.0254	9.9266	-17.497
0.195	21.90	100.0243	9.9265	-17.508
0.203	21.90	100.0230	9.9263	-17.521
0.212	21.90	100.0216	9.9262	-17.534
0.220	21.91	100.0199	9.9260	-17.548
0.228	21.91	100.0181	9.9259	-17.562
0.237	21.91	100.0161	9.9257	-17.578
0.245	21.91	100.0140	9.9254	-17.594
0.253	21.91	100.0117	9.9252	-17.610
0.262	21.91	100.0092	9.9250	-17.626
0.270	21.92	100.0066	9.9247	-17.643
0.278	21.92	100.0038	9.9244	-17.660
0.287	21.93	100.0008	9.9241	-17.678
0.295	21.93	99.9976	9.9238	-17.696
0.303	21.93	99.9943	9.9235	-17.714
0.312	21.94	99.9908	9.9231	-17.732
0.320	21.94	99.9871	9.9228	-17.750
0.328	21.95	99.9833	9.9224	-17.768
0.337	21.96	99.9794	9.9220	-17.786
0.345	21.97	99.9752	9.9216	-17.805
0.353	21.97	99.9710	9.9212	-17.825
0.362	21.98	99.9666	9.9207	-17.844
0.370	21.99	99.9621	9.9203	-17.864
0.378	22.00	99.9575	9.9198	-17.885
0.387	22.01	99.9528	9.9194	-17.906
0.395	22.02	99.9480	9.9189	-17.928
0.403	22.03	99.9431	9.9184	-17.950
0.412	22.04	99.9381	9.9179	-17.972
0.420	22.06	99.9331	9.9174	-17.995
0.428	22.07	99.9279	9.9169	-18.018
0.437	22.08	99.9227	9.9164	-18.041
0.445	22.10	99.9173	9.9159	-18.064
0.453	22.11	99.9120	9.9153	-18.087
0.462	22.13	99.9065	9.9148	-18.111
0.470	22.15	99.9010	9.9142	-18.135
0.478	22.16	99.8954	9.9137	-18.159
0.487	22.18	99.8897	9.9131	-18.182
0.495	22.20	99.8840	9.9126	-18.208
0.503	22.22	99.8783	9.9120	-18.233
0.512	22.24	99.8725	9.9114	-18.258
0.520	22.26	99.8666	9.9108	-18.284
0.528	22.28	99.8607	9.9102	-18.309
0.537	22.31	99.8547	9.9096	-18.335
0.545	22.33	99.8487	9.9090	-18.361
0.553	22.35	99.8427	9.9084	-18.388
0.562	22.38	99.8366	9.9078	-18.414
0.570	22.40	99.8305	9.9072	-18.440
0.578	22.43	99.8244	9.9066	-18.467
0.587	22.46	99.8182	9.9060	-18.493
0.595	22.48	99.8120	9.9054	-18.520
0.603	22.51	99.8058	9.9048	-18.547
0.612	22.54	99.7996	9.9042	-18.576
0.620	22.57	99.7934	9.9036	-18.604
0.628	22.60	99.7872	9.9029	-18.633
0.637	22.63	99.7810	9.9023	-18.661
0.645	22.66	99.7748	9.9017	-18.689
0.653	22.70	99.7686	9.9011	-18.718
0.662	22.73	99.7625	9.9005	-18.746
0.670	22.76	99.7563	9.8999	-18.775
0.678	22.80	99.7502	9.8993	-18.803
0.687	22.83	99.7441	9.8987	-18.831
0.695	22.87	99.7381	9.8981	-18.860
0.703	22.91	99.7321	9.8975	-18.888
0.712	22.95	99.7261	9.8969	-18.916
0.720	22.99	99.7202	9.8963	-18.944
0.728	23.03	99.7143	9.8957	-18.972
0.737	23.07	99.7084	9.8951	-19.001
0.745	23.11	99.7026	9.8945	-19.030
0.753	23.15	99.6969	9.8940	-19.059
0.762	23.19	99.6912	9.8934	-19.088
0.770	23.23	99.6856	9.8929	-19.116
0.778	23.28	99.6800	9.8923	-19.144
0.787	23.32	99.6745	9.8918	-19.171
0.795	23.37	99.6690	9.8912	-19.198
0.803	23.42	99.6636	9.8907	-19.225
0.812	23.46	99.6583	9.8901	-19.251
0.820	23.51	99.6530	9.8896	-19.277
0.828	23.56	99.6478	9.8891	-19.301
0.837	23.61	99.6426	9.8886	-19.325
0.845	23.66	99.6375	9.8881	-19.350
0.853	23.71	99.6324	9.8876	-19.373
0.862	23.76	99.6274	9.8871	-19.397
0.870	23.82	99.6224	9.8866	-19.420
0.878	23.87	99.6175	9.8861	-19.443
0.887	23.92	99.6126	9.8856	-19.465
0.895	23.98	99.6078	9.8851	-19.486
0.903	24.04	99.6030	9.8847	-19.507
0.912	24.09	99.5983	9.8842	-19.528
0.920	24.15	99.5936	9.8837	-19.549
0.928	24.21	99.5889	9.8833	-19.569
0.937	24.27	99.5842	9.8828	-19.588
0.945	24.33	99.5796	9.8823	-19.606
0.953	24.39	99.5751	9.8819	-19.623
0.962	24.45	99.5705	9.8814	-19.640
0.970	24.51	99.5660	9.8810	-19.656
0.978	24.57	99.5615	9.8805	-19.672
0.987	24.63	99.5570	9.8801	-19.687
0.995	24.70	99.5525	9.8796	-19.701
1.003	24.76	99.5481	9.8792	-19.713
1.012	24.83	99.5436	9.8788	-19.726
1.020	24.89	99.5392	9.8783	-19.737
1.028	24.96	99.5347	9.8779	-19.747
1.037	25.03	99.5303	9.8774	-19.758
1.045	25.10	99.5259	9.8770	-19.767
1.053	25.16	99.5214	9.8766	-19.776
1.062	25.23	99.5170	9.8761	-19.783
1.070	25.30	99.5126	9.8757	-19.791
1.078	25.37	99.5081	9.8752	-19.798
1.087	25.45	99.5037	9.8748	-19.805
1.095	25.52	99.4992	9.8744	-19.811
1.103	25.59	99.4948	9.8739	-19.817
1.112	25.66	99.4903	9.8735	-19.822
1.120	25.73	99.4858	9.8730	-19.826
1.128	25.81	99.4813	9.8726	-19.830
1.137	25.88	99.4768	9.8721	-19.833
1.145	25.96	99.4722	9.8717	-19.836
1.153	26.03	99.4677	9.8712	-19.839
1.162	26.11	99.4631	9.8708	-19.840
1.170	26.19	99.4585	9.8703	-19.842
1.178	26.26	99.4538	9.8699	-19.843
1.187	26.34	99.4492	9.8694	-19.844
1.195	26.42	99.4445	9.8689	-19.844
1.203	26.50	99.4398	9.8685	-19.844
1.212	26.58	99.4351	9.8680	-19.844
1.220	26.66	99.4304	9.8675	-19.844
1.228	26.74	99.4257	9.8671	-19.843
1.237	26.82	99.4209	9.8666	-19.842
1.245	26.90	99.4161	9.8661	-19.840
1.253	26.99	99.4113	9.8656	-19.838
1.262	27.07	99.4064	9.8652	-19.834
1.270	27.15	99.4016	9.8647	-19.830
1.278	27.23	99.3967	9.8642	-19.826
1.287	27.32	99.3918	9.8637	-19.820
1.295	27.40	99.3869	9.8632	-19.813
1.303	27.49	99.3819	9.8627	-19.806
1.312	27.57	99.3770	9.8622	-19.798
1.320	27.66	99.3720	9.8617	-19.789
1.328	27.75	99.3669	9.8612	-19.779
1.337	27.83	99.3619	9.8607	-19.769
1.345	27.92	99.3568	9.8602	-19.759
1.353	28.01	99.3517	9.8597	-19.749
1.362	28.09	99.3466	9.8592	-19.738
1.370	28.18	99.3414	9.8587	-19.726
1.378	28.27	99.3363	9.8582	-19.714
1.387	28.36	99.3311	9.8577	-19.702
1.395	28.45	99.3258	9.8572	-19.690
1.403	28.54	99.3206	9.8566	-19.678
1.412	28.63	99.3153	9.8561	-19.665
1.420	28.72	99.3100	9.8556	-19.652
1.428	28.81	99.3047	9.8551	-19.638
1.437	28.90	99.2994	9.8545	-19.624
1.445	28.99	99.2941	9.8540	-19.610
1.453	29.08	99.2887	9.8535	-19.596
1.462	29.18	99.2833	9.8529	-19.581
1.470	29.27	99.2779	9.8524	-19.566
1.478	29.36	99.2724	9.8519	-19.550
1.487	29.45	99.2670	9.8513	-19.534
1.495	29.55	99.2615	9.8508	-19.518
1.503	29.64	99.2560	9.8502	-19.502
1.512	29.73	99.2504	9.8497	-19.485
1.520	29.83	99.2449	9.8491	-19.468
1.528	29.92	99.2393	9.8486	-19.451
1.537	30.01	99.2337	9.8480	-19.435
1.545	30.11	99.2281	9.8475	-19.417
1.553	30.20	99.2225	9.8469	-19.398
1.562	30.30	99.2168	9.8463	-19.379
1.570	30.39	99.2112	9.8458	-19.361
1.578	30.49	99.2055	9.8452	-19.342
1.587	30.58	99.1998	9.8446	-19.323
1.595	30.68	99.1940	9.8441	-19.303
1.603	30.78	99.1883	9.8435	-19.282
1.612	30.87	99.1825	9.8429	-19.261
1.620	30.97	99.1767	9.8424	-19.240
1.628	31.07	99.1709	9.8418	-19.219
1.637	31.16	99.1650	9.8412	-19.198
1.645	31.26	99.1592	9.8406	-19.176
1.653	31.36	99.1533	9.8400	-19.154
1.662	31.46	99.1474	9.8394	-19.133
1.670	31.55	99.1415	9.8389	-19.111
1.678	31.65	99.1356	9.8383	-19.089
1.687	31.75	99.1296	9.8377	-19.067
1.695	31.85	99.1237	9.8371	-19.044
1.703	31.94	99.1176	9.8365	-19.021
1.712	32.04	99.1116	9.8359	-18.998
1.720	32.14	99.1055	9.8353	-18.975
1.728	32.24	99.0995	9.8347	-18.952
1.737	32.34	99.0933	9.8341	-18.928
1.745	32.44	99.0872	9.8335	-18.903
1.753	32.54	99.0810	9.8329	-18.878
1.762	32.64	99.0749	9.8322	-18.854
1.770	32.74	99.0687	9.8316	-18.829
1.778	32.83	99.0624	9.8310	-18.804
1.787	32.93	99.0562	9.8304	-18.778
1.795	33.03	99.0499	9.8298	-18.753
1.803	33.13	99.0437	9.8292	-18.727
1.812	33.23	99.0373	9.8285	-18.701
1.820	33.33	99.0310	9.8279	-18.675
1.828	33.43	99.0246	9.8273	-18.649
1.837	33.53	99.0183	9.8266	-18.623
1.845	33.63	99.0118	9.8260	-18.597
1.853	33.73	99.0054	9.8254	-18.569
1.862	33.83	98.9989	9.8247	-18.542
1.870	33.93	98.9924	9.8241	-18.515
1.878	34.03	98.9859	9.8234	-18.488
1.887	34.13	98.9794	9.8228	-18.461
1.895	34.23	98.9728	9.8221	-18.433
1.903	34.33	98.9663	9.8215	-18.405
1.912	34.44	98.9597	9.8208	-18.377
1.920	34.54	98.9531	9.8202	-18.348
1.928	34.64	98.9464	9.8195	-18.319
1.937	34.74	98.9397	9.8188	-18.291
1.945	34.84	98.9331	9.8182	-18.262
1.953	34.94	98.9263	9.8175	-18.233
1.962	35.04	98.9196	9.8168	-18.203
1.970	35.14	98.9129	9.8162	-18.173
1.978	35.24	98.9061	9.8155	-18.144
1.987	35.34	98.8993	9.8148	-18.115
1.995	35.44	98.8925	9.8141	-18.085
2.003	35.54	98.8856	9.8135	-18.056
2.012	35.64	98.8787	9.8128	-18.026
2.020	35.74	98.8718	9.8121	-17.997
2.028	35.84	98.8649	9.8114	-17.967
2.037	35.94	98.8580	9.8107	-17.937
2.045	36.04	98.8510	9.8100	-17.906
2.053	36.14	98.8440	9.8093	-17.876
2.062	36.24	98.8369	9.8086	-17.846
2.070	36.34	98.8299	9.8079	-17.815
2.078	36.44	98.8228	9.8072	-17.784
2.087	36.54	98.8157	9.8065	-17.753
2.095	36.64	98.8086	9.8058	-17.722
2.103	36.74	98.8015	9.8051	-17.691
2.112	36.84	98.7943	9.8044	-17.660
2.120	36.94	98.7871	9.8037	-17.628
2.128	37.04	98.7800	9.8030	-17.597
2.137	37.14	98.7727	9.8023	-17.566
2.145	37.24	98.7655	9.8015	-17.534
2.153	37.34	98.7582	9.8008	-17.503
2.162	37.44	98.7509	9.8001	-17.471
2.170	37.54	98.7436	9.7994	-17.440
2.178	37.64	98.7363	9.7986	-17.408
2.187	37.74	98.7289	9.7979	-17.377
2.195	37.84	98.7215	9.7972	-17.346
2.203	37.94	98.7141	9.7964	-17.314
2.212	38.04	98.7066	9.7957	-17.282
2.220	38.14	98.6992	9.7950	-17.249
2.228	38.23	98.6917	9.7942	-17.217
2.237	38.33	98.6842	9.7935	-17.185
2.245	38.43	98.6767	9.7927	-17.153
2.253	38.53	98.6691	9.7920	-17.121
2.262	38.63	98.6615	9.7912	-17.089
2.270	38.73	98.6539	9.7905	-17.057
2.278	38.83	98.6463	9.7897	-17.024
2.287	38.92	98.6387	9.7890	-16.992
2.295	39.02	98.6310	9.7882	-16.960
2.303	39.12	98.6233	9.7874	-16.928
2.312	39.22	98.6156	9.7867	-16.895
2.320	39.32	98.6079	9.7859	-16.862
2.328	39.42	98.6001	9.7851	-16.829
2.337	39.51	98.5923	9.7844	-16.797
2.345	39.61	98.5845	9.7836	-16.764
2.353	39.71	98.5767	9.7828	-16.731
2.362	39.81	98.5688	9.7820	-16.698
2.370	39.91	98.5610	9.7812	-16.665
2.378	40.00	98.5530	9.7805	-16.632
2.387	40.10	98.5451	9.7797	-16.599
2.395	40.20	98.5372	9.7789	-16.566
2.403	40.29	98.5292	9.7781	-16.534
2.412	40.39	98.5212	9.7773	-16.502
2.420	40.49	98.5132	9.7765	-16.468
2.428	40.58	98.5052	9.7757	-16.435
2.437	40.68	98.4971	9.7749	-16.402
2.445	40.78	98.4890	9.7741	-16.368
2.453	40.87	98.4810	9.7733	-16.334
2.462	40.97	98.4729	9.7725	-16.301
2.470	41.07	98.4647	9.7717	-16.267
2.478	41.16	98.4566	9.7709	-16.234
2.487	41.26	98.4484	9.7701	-16.201
2.495	41.35	98.4402	9.7693	-16.168
2.503	41.45	98.4320	9.7684	-16.135
2.512	41.54	98.4237	9.7676	-16.102
2.520	41.64	98.4154	9.7668	-16.069
2.528	41.73	98.4071	9.7660	-16.037
2.537	41.83	98.3988	9.7652	-16.005
2.545	41.93	98.3905	9.7643	-15.973
2.553	42.02	98.3821	9.7635	-15.941
2.562	42.12	98.3738	9.7627	-15.908
2.570	42.21	98.3654	9.7618	-15.875
2.578	42.30	98.3570	9.7610	-15.841
2.587	42.40	98.3485	9.7602	-15.809
2.595	42.49	98.3401	9.7593	-15.776
2.603	42.59	98.3316	9.7585	-15.743
2.612	42.68	98.3231	9.7576	-15.710
2.620	42.78	98.3146	9.7568	-15.677
2.628	42.87	98.3061	9.7559	-15.645
2.637	42.96	98.2975	9.7551	-15.612
2.645	43.06	98.2889	9.7542	-15.579
2.653	43.15	98.2803	9.7534	-15.546
2.662	43.25	98.2717	9.7525	-15.514
2.670	43.34	98.2630	9.7517	-15.482
2.678	43.43	98.2544	9.7508	-15.450
2.687	43.53	98.2457	9.7500	-15.417
2.695	43.62	98.2369	9.7491	-15.385
2.703	43.71	98.2282	9.7482	-15.352
2.712	43.80	98.2194	9.7474	-15.320
2.720	43.90	98.2106	9.7465	-15.287
2.728	43.99	98.2018	9.7456	-15.255
2.737	44.08	98.1930	9.7447	-15.223
2.745	44.17	98.1841	9.7439	-15.192
2.753	44.27	98.1753	9.7430	-15.159
2.762	44.36	98.1664	9.7421	-15.127
2.770	44.45	98.1574	9.7412	-15.095
2.778	44.54	98.1485	9.7403	-15.063
2.787	44.63	98.1396	9.7394	-15.032
2.795	44.72	98.1306	9.7385	-14.999
2.803	44.81	98.1216	9.7376	-14.967
2.812	44.91	98.1126	9.7368	-14.935
2.820	45.00	98.1036	9.7359	-14.903
2.828	45.09	98.0945	9.7350	-14.871
2.837	45.18	98.0855	9.7341	-14.840
2.845	45.27	98.0764	9.7332	-14.808
2.853	45.36	98.0673	9.7323	-14.776
2.862	45.45	98.0582	9.7314	-14.744
2.870	45.54	98.0491	9.7304	-14.711
2.878	45.63	98.0399	9.7295	-14.680
2.887	45.72	98.0307	9.7286	-14.648
2.895	45.81	98.0215	9.7277	-14.616
2.903	45.90	98.0123	9.7268	-14.584
2.912	45.99	98.0031	9.7259	-14.552
2.920	46.08	97.9938	9.7250	-14.520
2.928	46.17	97.9845	9.7240	-14.488
2.937	46.26	97.9752	9.7231	-14.457
2.945	46.35	97.9659	9.7222	-14.426
2.953	46.44	97.9566	9.7213	-14.395
2.962	46.53	97.9473	9.7203	-14.364
2.970	46.62	97.9379	9.7194	-14.333
2.978	46.70	97.9285	9.7185	-14.302
2.987	46.79	97.9191	9.7176	-14.271
2.995	46.88	97.9097	9.7166	-14.240
3.003	46.97	97.9003	9.7157	-14.209
3.012	47.06	97.8908	9.7147	-14.178
3.020	47.15	97.8814	9.7138	-14.147
3.028	47.24	97.8718	9.7129	-14.117
3.037	47.33	97.8623	9.7119	-14.086
3.045	47.41	97.8528	9.7110	-14.055
3.053	47.50	97.8432	9.7100	-14.024
3.062	47.59	97.8336	9.7091	-13.994
3.070	47.68	97.8240	9.7081	-13.964
3.078	47.77	97.8143	9.7071	-13.933
3.087	47.85	97.8046	9.7062	-13.902
3.095	47.94	97.7949	9.7052	-13.871
3.103	48.03	97.7852	9.7043	-13.841
3.112	48.12	97.7755	9.7033	-13.811
3.120	48.20	97.7658	9.7023	-13.780
3.128	48.29	97.7561	9.7014	-13.749
3.137	48.38	97.7463	9.7004	-13.719
3.145	48.46	97.7365	9.6994	-13.690
3.153	48.55	97.7267	9.6985	-13.660
3.162	48.64	97.7169	9.6975	-13.630
3.170	48.72	97.7071	9.6965	-13.601
3.178	48.81	97.6972	9.6955	-13.572
3.187	48.90	97.6873	9.6945	-13.542
3.195	48.98	97.6774	9.6936	-13.512
3.203	49.07	97.6674	9.6926	-13.483
3.212	49.16	97.6574	9.6916	-13.454
3.220	49.24	97.6474	9.6906	-13.425
3.228	49.33	97.6374	9.6896	-13.395
3.237	49.42	97.6273	9.6886	-13.366
3.245	49.50	97.6173	9.6876	-13.336
3.253	49.59	97.6072	9.6866	-13.307
3.262	49.67	97.5971	9.6856	-13.277
3.270	49.76	97.5871	9.6846	-13.248
3.278	49.84	97.5770	9.6836	-13.219
3.287	49.93	97.5669	9.6826	-13.190
3.295	50.02	97.5568	9.6816	-13.161
3.303	50.10	97.5467	9.6806	-13.132
3.312	50.19	97.5366	9.6796	-13.102
3.320	50.27	97.5264	9.6786	-13.073
3.328	50.36	97.5162	9.6776	-13.044
3.337	50.44	97.5061	9.6766	-13.015
3.345	50.53	97.4959	9.6755	-12.986
3.353	50.61	97.4856	9.6745	-12.957
3.362	50.70	97.4754	9.6735	-12.928
3.370	50.78	97.4653	9.6725	-12.899
3.378	50.87	97.4550	9.6715	-12.870
3.387	50.95	97.4448	9.6705	-12.841
3.395	51.04	97.4345	9.6695	-12.812
3.403	51.12	97.4242	9.6684	-12.784
3.412	51.21	97.4139	9.6674	-12.756
3.420	51.29	97.4036	9.6664	-12.727
3.428	51.38	97.3933	9.6654	-12.699
3.437	51.46	97.3829	9.6643	-12.670
3.445	51.55	97.3725	9.6633	-12.641
3.453	51.63	97.3621	9.6623	-12.612
3.462	51.72	97.3516	9.6612	-12.584
3.470	51.80	97.3412	9.6602	-12.555
3.478	51.88	97.3308	9.6592	-12.527
3.487	51.97	97.3203	9.6581	-12.499
3.495	52.05	97.3098	9.6571	-12.471
3.503	52.14	97.2993	9.6560	-12.443
3.512	52.22	97.2888	9.6550	-12.415
3.520	52.31	97.2784	9.6540	-12.387
3.528	52.39	97.2680	9.6529	-12.360
3.537	52.47	97.2576	9.6519	-12.333
3.545	52.56	97.2472	9.6509	-12.305
3.553	52.64	97.2367	9.6498	-12.278
3.562	52.72	97.2262	9.6488	-12.250
3.570	52.81	97.2158	9.6477	-12.221
3.578	52.89	97.2053	9.6467	-12.193
3.587	52.98	97.1949	9.6457	-12.165
3.595	53.06	97.1844	9.6446	-12.137
3.603	53.14	97.1738	9.6436	-12.109
3.612	53.23	97.1632	9.6425	-12.082
3.620	53.31	97.1526	9.6415	-12.053
3.628	53.40	97.1420	9.6404	-12.025
3.637	53.48	97.1315	9.6394	-11.996
3.645	53.56	97.1209	9.6383	-11.969
3.653	53.65	97.1104	9.6373	-11.941
3.662	53.73	97.0998	9.6362	-11.914
3.670	53.81	97.0892	9.6352	-11.886
3.678	53.90	97.0786	9.6341	-11.859
3.687	53.98	97.0679	9.6331	-11.831
3.695	54.06	97.0573	9.6320	-11.803
3.703	54.15	97.0466	9.6310	-11.775
3.712	54.23	97.0360	9.6299	-11.748
3.720	54.31	97.0253	9.6289	-11.720
3.728	54.40	97.0147	9.6278	-11.693
3.737	54.48	97.0040	9.6267	-11.666
3.745	54.56	96.9934	9.6257	-11.638
3.753	54.65	96.9828	9.6246	-11.610
3.762	54.73	96.9722	9.6236	-11.583
3.770	54.81	96.9615	9.6225	-11.556
3.778	54.90	96.9510	9.6215	-11.528
3.787	54.98	96.9404	9.6204	-11.501
3.795	55.06	96.9298	9.6194	-11.475
3.803	55.15	96.9193	9.6183	-11.448
3.812	55.23	96.9088	9.6173	-11.420
3.820	55.31	96.8983	9.6162	-11.392
3.828	55.40	96.8878	9.6152	-11.365
3.837	55.48	96.8774	9.6142	-11.338
3.845	55.56	96.8670	9.6131	-11.310
3.853	55.65	96.8566	9.6121	-11.282
3.862	55.73	96.8462	9.6111	-11.255
3.870	55.81	96.8358	9.6100	-11.227
3.878	55.90	96.8254	9.6090	-11.199
3.887	55.98	96.8150	9.6080	-11.173
3.895	56.06	96.8046	9.6069	-11.146
3.903	56.15	96.7941	9.6059	-11.119
3.912	56.23	96.7836	9.6049	-11.092
3.920	56.31	96.7730	9.6038	-11.065
3.928	56.40	96.7625	9.6028	-11.038
3.937	56.48	96.7519	9.6017	-11.011
3.945	56.56	96.7414	9.6007	-10.983
3.953	56.64	96.7309	9.5996	-10.957
3.962	56.73	96.7204	9.5986	-10.929
3.970	56.81	96.7100	9.5976	-10.902
3.978	56.89	96.6995	9.5965	-10.875
3.987	56.98	96.6890	9.5955	-10.848
3.995	57.06	96.6786	9.5944	-10.822
4.003	57.14	96.6682	9.5934	-10.795
4.012	57.23	96.6579	9.5924	-10.769
4.020	57.31	96.6475	9.5914	-10.743
4.028	57.39	96.6370	9.5903	-10.717
4.037	57.47	96.6265	9.5893	-10.691
4.045	57.56	96.6161	9.5882	-10.665
4.053	57.64	96.6056	9.5872	-10.639
4.062	57.72	96.5951	9.5862	-10.612
4.070	57.81	96.5847	9.5851	-10.586
4.078	57.89	96.5744	9.5841	-10.559
4.087	57.97	96.5640	9.5831	-10.532
4.095	58.06	96.5536	9.5820	-10.504
4.103	58.14	96.5432	9.5810	-10.477
4.112	58.22	96.5329	9.5800	-10.450
4.120	58.31	96.5226	9.5790	-10.423
4.128	58.39	96.5123	9.5779	-10.397
4.137	58.47	96.5020	9.5769	-10.370
4.145	58.56	96.4918	9.5759	-10.343
4.153	58.64	96.4815	9.5749	-10.316
4.162	58.72	96.4713	9.5739	-10.289
4.170	58.81	96.4610	9.5728	-10.263
4.178	58.89	96.4507	9.5718	-10.237
4.187	58.97	96.4405	9.5708	-10.211
4.195	59.06	96.4303	9.5698	-10.184
4.203	59.14	96.4201	9.5688	-10.156
4.212	59.22	96.4098	9.5678	-10.129
4.220	59.31	96.3996	9.5668	-10.102
4.228	59.39	96.3894	9.5657	-10.074
4.237	59.47	96.3792	9.5647	-10.047
4.245	59.56	96.3690	9.5637	-10.020
4.253	59.64	96.3588	9.5627	-9.993
4.262	59.72	96.3487	9.5617	-9.965
4.270	59.81	96.3386	9.5607	-9.937
4.278	59.89	96.3284	9.5597	-9.910
4.287	59.97	96.3183	9.5587	-9.882
4.295	60.06	96.3082	9.5577	-9.855
4.303	60.14	96.2981	9.5567	-9.829
4.312	60.23	96.2879	9.5557	-9.802
4.320	60.31	96.2778	9.5547	-9.774
4.328	60.39	96.2677	9.5537	-9.747
4.337	60.48	96.2575	9.5527	-9.720
4.345	60.56	96.2474	9.5516	-9.692
4.353	60.64	96.2373	9.5506	-9.664
4.362	60.73	96.2271	9.5496	-9.638
4.370	60.81	96.2170	9.5486	-9.610
4.378	60.89	96.2068	9.5476	-9.583
4.387	60.98	96.1967	9.5466	-9.556
4.395	61.06	96.1865	9.5456	-9.529
4.403	61.15	96.1764	9.5446	-9.502
4.412	61.23	96.1663	9.5436	-9.475
4.420	61.31	96.1562	9.5426	-9.449
4.428	61.40	96.1461	9.5416	-9.422
4.437	61.48	96.1361	9.5406	-9.395
4.445	61.57	96.1261	9.5396	-9.367
4.453	61.65	96.1161	9.5386	-9.340
4.462	61.73	96.1062	9.5376	-9.312
4.470	61.82	96.0963	9.5367	-9.284
4.478	61.90	96.0864	9.5357	-9.257
4.487	61.98	96.0765	9.5347	-9.229
4.495	62.07	96.0667	9.5337	-9.202
4.503	62.15	96.0568	9.5327	-9.175
4.512	62.24	96.0470	9.5318	-9.148
4.520	62.32	96.0371	9.5308	-9.120
4.528	62.40	96.0273	9.5298	-9.094
4.537	62.49	96.0174	9.5288	-9.067
4.545	62.57	96.0076	9.5278	-9.039
4.553	62.66	95.9978	9.5269	-9.012
4.562	62.74	95.9880	9.5259	-8.985
4.570	62.83	95.9782	9.5249	-8.958
4.578	62.91	95.9684	9.5240	-8.931
4.587	63.00	95.9586	9.5230	-8.904
4.595	63.08	95.9488	9.5220	-8.876
4.603	63.16	95.9390	9.5210	-8.849
4.612	63.25	95.9293	9.5201	-8.821
4.620	63.33	95.9194	9.5191	-8.793
4.628	63.42	95.9097	9.5181	-8.767
4.637	63.50	95.8999	9.5172	-8.739
4.645	63.59	95.8901	9.5162	-8.711
4.653	63.67	95.8803	9.5152	-8.683
4.662	63.75	95.8705	9.5142	-8.656
4.670	63.84	95.8608	9.5133	-8.628
4.678	63.92	95.8510	9.5123	-8.601
4.687	64.01	95.8413	9.5113	-8.572
4.695	64.09	95.8315	9.5104	-8.544
4.703	64.18	95.8218	9.5094	-8.516
4.712	64.26	95.8121	9.5085	-8.488
4.720	64.35	95.8024	9.5075	-8.460
4.728	64.43	95.7927	9.5065	-8.432
4.737	64.52	95.7830	9.5056	-8.403
4.745	64.60	95.7733	9.5046	-8.374
4.753	64.69	95.7637	9.5036	-8.345
4.762	64.77	95.7540	9.5027	-8.316
4.770	64.86	95.7443	9.5017	-8.288
4.778	64.94	95.7347	9.5008	-8.260
4.787	65.03	95.7250	9.4998	-8.232
4.795	65.11	95.7154	9.4989	-8.204
4.803	65.20	95.7058	9.4979	-8.176
4.812	65.28	95.6962	9.4969	-8.148
4.820	65.37	95.6866	9.4960	-8.120
4.828	65.45	95.6770	9.4950	-8.093
4.837	65.54	95.6674	9.4941	-8.065
4.845	65.62	95.6578	9.4931	-8.037
4.853	65.71	95.6482	9.4922	-8.009
4.862	65.79	95.6387	9.4912	-7.982
4.870	65.88	95.6291	9.4903	-7.953
4.878	65.96	95.6196	9.4893	-7.925
4.887	66.05	95.6101	9.4884	-7.897
4.895	66.13	95.6006	9.4875	-7.868
4.903	66.22	95.5911	9.4865	-7.840
4.912	66.30	95.5816	9.4856	-7.811
4.920	66.39	95.5721	9.4846	-7.782
4.928	66.47	95.5627	9.4837	-7.754
4.937	66.56	95.5532	9.4828	-7.725
4.945	66.64	95.5438	9.4818	-7.695
4.953	66.73	95.5344	9.4809	-7.667
4.962	66.81	95.5250	9.4800	-7.638
4.970	66.90	95.5156	9.4790	-7.608
4.978	66.98	95.5062	9.4781	-7.580
4.987	67.07	95.4969	9.4772	-7.551
4.995	67.16	95.4875	9.4762	-7.521
5.003	67.24	95.4782	9.4753	-7.492
5.012	67.33	95.4689	9.4744	-7.463
5.020	67.41	95.4596	9.4735	-7.434
5.028	67.50	95.4504	9.4726	-7.405
5.037	67.58	95.4411	9.4716	-7.376
5.045	67.67	95.4319	9.4707	-7.347
5.053	67.76	95.4227	9.4698	-7.318
5.062	67.84	95.4135	9.4689	-7.288
5.070	67.93	95.4043	9.4680	-7.260
5.078	68.01	95.3951	9.4671	-7.231
5.087	68.10	95.3860	9.4662	-7.202
5.095	68.18	95.3768	9.4653	-7.173
5.103	68.27	95.3677	9.4643	-7.144
5.112	68.36	95.3586	9.4634	-7.114
5.120	68.44	95.3495	9.4625	-7.084
5.128	68.53	95.3404	9.4616	-7.054
5.137	68.61	95.3314	9.4607	-7.024
5.145	68.70	95.3223	9.4598	-6.994
5.153	68.78	95.3133	9.4589	-6.964
5.162	68.87	95.3043	9.4581	-6.934
5.170	68.96	95.2953	9.4572	-6.904
5.178	69.04	95.2863	9.4563	-6.874
5.187	69.13	95.2774	9.4554	-6.845
5.195	69.21	95.2684	9.4545	-6.815
5.203	69.30	95.2595	9.4536	-6.786
5.212	69.39	95.2506	9.4527	-6.757
5.220	69.47	95.2417	9.4518	-6.728
5.228	69.56	95.2329	9.4510	-6.699
5.237	69.64	95.2240	9.4501	-6.669
5.245	69.73	95.2152	9.4492	-6.640
5.253	69.82	95.2064	9.4483	-6.610
5.262	69.90	95.1976	9.4475	-6.580
5.270	69.99	95.1888	9.4466	-6.551
5.278	70.07	95.1801	9.4457	-6.521
5.287	70.16	95.1714	9.4449	-6.491
5.295	70.25	95.1627	9.4440	-6.462
5.303	70.33	95.1540	9.4431	-6.431
5.312	70.42	95.1453	9.4423	-6.401
5.320	70.51	95.1367	9.4414	-6.371
5.328	70.59	95.1280	9.4406	-6.341
5.337	70.68	95.1194	9.4397	-6.311
5.345	70.77	95.1108	9.4389	-6.282
5.353	70.85	95.1023	9.4380	-6.252
5.362	70.94	95.0937	9.4372	-6.222
5.370	71.02	95.0852	9.4363	-6.192
5.378	71.11	95.0767	9.4355	-6.162
5.387	71.20	95.0682	9.4346	-6.132
5.395	71.28	95.0597	9.4338	-6.102
5.403	71.37	95.0513	9.4329	-6.072
5.412	71.46	95.0429	9.4321	-6.042
5.420	71.54	95.0345	9.4313	-6.011
5.428	71.63	95.0261	9.4304	-5.981
5.437	71.72	95.0177	9.4296	-5.951
5.445	71.80	95.0093	9.4288	-5.920
5.453	71.89	95.0010	9.4280	-5.890
5.462	71.97	94.9927	9.4271	-5.860
5.470	72.06	94.9845	9.4263	-5.830
5.478	72.15	94.9762	9.4255	-5.799
5.487	72.23	94.9680	9.4247	-5.768
5.495	72.32	94.9598	9.4239	-5.737
5.503	72.41	94.9516	9.4231	-5.708
5.512	72.49	94.9434	9.4222	-5.677
5.520	72.58	94.9353	9.4214	-5.647
5.528	72.67	94.9272	9.4206	-5.617
5.537	72.75	94.9191	9.4198	-5.587
5.545	72.84	94.9110	9.4190	-5.556
5.553	72.93	94.9029	9.4182	-5.526
5.562	73.01	94.8949	9.4174	-5.496
5.570	73.10	94.8869	9.4166	-5.467
5.578	73.19	94.8789	9.4158	-5.436
5.587	73.27	94.8709	9.4150	-5.406
5.595	73.36	94.8629	9.4143	-5.376
5.603	73.45	94.8550	9.4135	-5.345
5.612	73.53	94.8471	9.4127	-5.315
5.620	73.62	94.8392	9.4119	-5.284
5.628	73.71	94.8314	9.4111	-5.253
5.637	73.79	94.8235	9.4103	-5.222
5.645	73.88	94.8157	9.4096	-5.191
5.653	73.97	94.8080	9.4088	-5.160
5.662	74.05	94.8002	9.4080	-5.130
5.670	74.14	94.7925	9.4073	-5.099
5.678	74.23	94.7848	9.4065	-5.068
5.687	74.31	94.7771	9.4057	-5.038
5.695	74.40	94.7694	9.4050	-5.007
5.703	74.49	94.7617	9.4042	-4.976
5.712	74.57	94.7541	9.4035	-4.945
5.720	74.66	94.7465	9.4027	-4.914
5.728	74.75	94.7389	9.4019	-4.883
5.737	74.83	94.7313	9.4012	-4.852
5.745	74.92	94.7238	9.4004	-4.821
5.753	75.01	94.7163	9.3997	-4.790
5.762	75.09	94.7088	9.3990	-4.759
5.770	75.18	94.7013	9.3982	-4.728
5.778	75.27	94.6938	9.3975	-4.697
5.787	75.36	94.6864	9.3967	-4.665
5.795	75.44	94.6790	9.3960	-4.634
5.803	75.53	94.6716	9.3953	-4.604
5.812	75.62	94.6643	9.3945	-4.574
5.820	75.70	94.6570	9.3938	-4.543
5.828	75.79	94.6496	9.3931	-4.513
5.837	75.88	94.6424	9.3924	-4.482
5.845	75.96	94.6351	9.3916	-4.452
5.853	76.05	94.6279	9.3909	-4.422
5.862	76.14	94.6206	9.3902	-4.392
5.870	76.22	94.6134	9.3895	-4.361
5.878	76.31	94.6063	9.3888	-4.330
5.887	76.40	94.5991	9.3881	-4.298
5.895	76.49	94.5920	9.3874	-4.267
5.903	76.57	94.5849	9.3867	-4.236
5.912	76.66	94.5778	9.3860	-4.206
5.920	76.75	94.5708	9.3853	-4.175
5.928	76.83	94.5637	9.3846	-4.144
5.937	76.92	94.5567	9.3839	-4.113
5.945	77.01	94.5498	9.3832	-4.083
5.953	77.09	94.5428	9.3825	-4.053
5.962	77.18	94.5359	9.3818	-4.022
5.970	77.27	94.5290	9.3811	-3.992
5.978	77.35	94.5221	9.3804	-3.961
5.987	77.44	94.5153	9.3798	-3.930
5.995	77.53	94.5084	9.3791	-3.899
6.003	77.62	94.5016	9.3784	-3.867
6.012	77.70	94.4949	9.3777	-3.836
6.020	77.79	94.4881	9.3771	-3.805
6.028	77.88	94.4814	9.3764	-3.773
6.037	77.96	94.4746	9.3757	-3.742
6.045	78.05	94.4679	9.3751	-3.710
6.053	78.14	94.4613	9.3744	-3.679
6.062	78.22	94.4546	9.3737	-3.647
6.070	78.31	94.4480	9.3731	-3.616
6.078	78.40	94.4414	9.3724	-3.585
6.087	78.49	94.4348	9.3718	-3.554
6.095	78.57	94.4282	9.3711	-3.522
6.103	78.66	94.4217	9.3705	-3.491
6.112	78.75	94.4152	9.3698	-3.460
6.120	78.84	94.4087	9.3692	-3.428
6.128	78.92	94.4022	9.3685	-3.398
6.137	79.01	94.3958	9.3679	-3.366
6.145	79.10	94.3894	9.3673	-3.335
6.153	79.18	94.3830	9.3666	-3.303
6.162	79.27	94.3766	9.3660	-3.271
6.170	79.36	94.3703	9.3654	-3.239
6.178	79.45	94.3640	9.3647	-3.208
6.187	79.53	94.3577	9.3641	-3.176
6.195	79.62	94.3514	9.3635	-3.145
6.203	79.71	94.3451	9.3629	-3.114
6.212	79.79	94.3389	9.3622	-3.082
6.220	79.88	94.3327	9.3616	-3.051
6.228	79.97	94.3265	9.3610	-3.020
6.237	80.05	94.3204	9.3604	-2.989
6.245	80.14	94.3143	9.3598	-2.958
6.253	80.23	94.3082	9.3592	-2.928
6.262	80.31	94.3021	9.3586	-2.896
6.270	80.40	94.2961	9.3580	-2.865
6.278	80.49	94.2900	9.3574	-2.834
6.287	80.58	94.2841	9.3568	-2.802
6.295	80.66	94.2781	9.3562	-2.771
6.303	80.75	94.2721	9.3556	-2.739
6.312	80.84	94.2662	9.3550	-2.708
6.320	80.93	94.2603	9.3544	-2.677
6.328	81.01	94.2544	9.3539	-2.646
6.337	81.10	94.2486	9.3533	-2.614
6.345	81.19	94.2427	9.3527	-2.583
6.353	81.27	94.2369	9.3521	-2.552
6.362	81.36	94.2311	9.3516	-2.521
6.370	81.45	94.2253	9.3510	-2.489
6.378	81.54	94.2196	9.3504	-2.459
6.387	81.62	94.2139	9.3498	-2.428
6.395	81.71	94.2082	9.3493	-2.396
6.403	81.80	94.2025	9.3487	-2.365
6.412	81.88	94.1969	9.3482	-2.334
6.420	81.97	94.1912	9.3476	-2.303
6.428	82.06	94.1856	9.3470	-2.272
6.437	82.15	94.1801	9.3465	-2.240
6.445	82.23	94.1745	9.3459	-2.209
6.453	82.32	94.1690	9.3454	-2.178
6.462	82.41	94.1634	9.3448	-2.146
6.470	82.49	94.1580	9.3443	-2.115
6.478	82.58	94.1525	9.3437	-2.085
6.487	82.67	94.1471	9.3432	-2.054
6.495	82.75	94.1416	9.3427	-2.023
6.503	82.84	94.1362	9.3421	-1.991
6.512	82.93	94.1309	9.3416	-1.960
6.520	83.02	94.1255	9.3411	-1.929
6.528	83.10	94.1202	9.3405	-1.899
6.537	83.19	94.1149	9.3400	-1.867
6.545	83.28	94.1097	9.3395	-1.836
6.553	83.36	94.1044	9.3390	-1.805
6.562	83.45	94.0992	9.3385	-1.774
6.570	83.54	94.0940	9.3379	-1.743
6.578	83.63	94.0888	9.3374	-1.712
6.587	83.71	94.0836	9.3369	-1.682
6.595	83.80	94.0785	9.3364	-1.651
6.603	83.89	94.0734	9.3359	-1.620
6.612	83.97	94.0683	9.3354	-1.588
6.620	84.06	94.0632	9.3349	-1.557
6.628	84.15	94.0581	9.3344	-1.525
6.637	84.23	94.0531	9.3339	-1.494
6.645	84.32	94.0481	9.3334	-1.463
6.653	84.41	94.0431	9.3329	-1.432
6.662	84.50	94.0382	9.3324	-1.401
6.670	84.58	94.0332	9.3319	-1.370
6.678	84.67	94.0283	9.3314	-1.339
6.687	84.76	94.0234	9.3309	-1.307
6.695	84.85	94.0185	9.3305	-1.276
6.703	84.93	94.0137	9.3300	-1.245
6.712	85.02	94.0089	9.3295	-1.214
6.720	85.11	94.0040	9.3290	-1.184
6.728	85.19	93.9993	9.3285	-1.152
6.737	85.28	93.9945	9.3281	-1.121
6.745	85.37	93.9898	9.3276	-1.089
6.753	85.45	93.9850	9.3271	-1.057
6.762	85.54	93.9803	9.3267	-1.026
6.770	85.63	93.9756	9.3262	-0.995
6.778	85.72	93.9710	9.3257	-0.964
6.787	85.80	93.9664	9.3253	-0.933
6.795	85.89	93.9617	9.3248	-0.903
6.803	85.98	93.9572	9.3244	-0.872
6.812	86.06	93.9526	9.3239	-0.841
6.820	86.15	93.9481	9.3235	-0.810
6.828	86.24	93.9435	9.3230	-0.780
6.837	86.32	93.9390	9.3226	-0.749
6.845	86.41	93.9346	9.3221	-0.719
6.853	86.50	93.9301	9.3217	-0.688
6.862	86.59	93.9257	9.3212	-0.659
6.870	86.67	93.9213	9.3208	-0.628
6.878	86.76	93.9169	9.3204	-0.598
6.887	86.85	93.9125	9.3199	-0.567
6.895	86.93	93.9082	9.3195	-0.537
6.903	87.02	93.9038	9.3191	-0.507
6.912	87.11	93.8995	9.3186	-0.477
6.920	87.19	93.8952	9.3182	-0.447
6.928	87.28	93.8910	9.3178	-0.417
6.937	87.37	93.8867	9.3174	-0.387
6.945	87.45	93.8825	9.3170	-0.357
6.953	87.54	93.8783	9.3165	-0.327
6.962	87.63	93.8741	9.3161	-0.297
6.970	87.71	93.8700	9.3157	-0.267
6.978	87.80	93.8659	9.3153	-0.237
6.987	87.89	93.8618	9.3149	-0.207
6.995	87.98	93.8577	9.3145	-0.177
7.003	88.06	93.8536	9.3141	-0.146
7.012	88.15	93.8496	9.3137	-0.116
7.020	88.24	93.8455	9.3133	-0.086
7.028	88.32	93.8415	9.3129	-0.056
7.037	88.41	93.8375	9.3125	-0.025
7.045	88.50	93.8336	9.3121	0.005
7.053	88.59	93.8296	9.3117	0.035
7.062	88.67	93.8257	9.3113	0.065
7.070	88.76	93.8218	9.3109	0.095
7.078	88.85	93.8179	9.3105	0.125
7.087	88.93	93.8140	9.3102	0.154
7.095	89.02	93.8101	9.3098	0.184
7.103	89.11	93.8063	9.3094	0.213
7.112	89.19	93.8025	9.3090	0.242
7.120	89.28	93.7987	9.3086	0.272
7.128	89.37	93.7949	9.3083	0.301
7.137	89.45	93.7911	9.3079	0.331
7.145	89.54	93.7874	9.3075	0.360
7.153	89.63	93.7837	9.3071	0.390
7.162	89.72	93.7800	9.3068	0.420
7.170	89.80	93.7763	9.3064	0.450
7.178	89.89	93.7727	9.3061	0.481
7.187	89.98	93.7690	9.3057	0.511
7.195	90.06	93.7654	9.3053	0.540
7.203	90.15	93.7618	9.3050	0.570
7.212	90.24	93.7582	9.3046	0.599
7.220	90.32	93.7547	9.3043	0.628
7.228	90.41	93.7511	9.3039	0.657
7.237	90.50	93.7476	9.3036	0.685
7.245	90.58	93.7441	9.3032	0.713
7.253	90.67	93.7407	9.3029	0.742
7.262	90.76	93.7372	9.3025	0.770
7.270	90.84	93.7338	9.3022	0.799
7.278	90.93	93.7304	9.3019	0.827
7.287	91.02	93.7270	9.3015	0.856
7.295	91.10	93.7236	9.3012	0.885
7.303	91.19	93.7203	9.3009	0.914
7.312	91.28	93.7169	9.3005	0.943
7.320	91.36	93.7136	9.3002	0.972
7.328	91.45	93.7103	9.2999	1.002
7.337	91.54	93.7071	9.2995	1.030
7.345	91.62	93.7038	9.2992	1.059
7.353	91.71	93.7005	9.2989	1.087
7.362	91.80	93.6973	9.2986	1.116
7.370	91.89	93.6941	9.2983	1.145
7.378	91.97	93.6910	9.2979	1.173
7.387	92.06	93.6878	9.2976	1.201
7.395	92.15	93.6846	9.2973	1.230
7.403	92.23	93.6815	9.2970	1.258
7.412	92.32	93.6784	9.2967	1.286
7.420	92.41	93.6753	9.2964	1.315
7.428	92.49	93.6722	9.2961	1.343
7.437	92.58	93.6692	9.2958	1.373
7.445	92.67	93.6661	9.2955	1.401
7.453	92.75	93.6631	9.2952	1.430
7.462	92.84	93.6601	9.2949	1.458
7.470	92.93	93.6571	9.2946	1.486
7.478	93.01	93.6541	9.2943	1.514
7.487	93.10	93.6512	9.2940	1.541
7.495	93.19	93.6482	9.2937	1.570
7.503	93.27	93.6453	9.2934	1.599
7.512	93.36	93.6424	9.2931	1.627
7.520	93.45	93.6395	9.2928	1.654
7.528	93.53	93.6366	9.2926	1.682
7.537	93.62	93.6337	9.2923	1.709
7.545	93.71	93.6309	9.2920	1.737
7.553	93.79	93.6280	9.2917	1.766
7.562	93.88	93.6252	9.2914	1.794
7.570	93.97	93.6224	9.2911	1.822
7.578	94.05	93.6196	9.2909	1.850
7.587	94.14	93.6169	9.2906	1.877
7.595	94.23	93.6141	9.2903	1.905
7.603	94.31	93.6114	9.2900	1.933
7.612	94.40	93.6086	9.2898	1.960
7.620	94.49	93.6059	9.2895	1.987
7.628	94.57	93.6033	9.2892	2.013
7.637	94.66	93.6006	9.2890	2.039
7.645	94.75	93.5979	9.2887	2.066
7.653	94.83	93.5953	9.2885	2.093
7.662	94.92	93.5927	9.2882	2.120
7.670	95.01	93.5901	9.2879	2.147
7.678	95.09	93.5874	9.2877	2.174
7.687	95.18	93.5849	9.2874	2.201
7.695	95.27	93.5823	9.2872	2.228
7.703	95.35	93.5798	9.2869	2.256
7.712	95.44	93.5772	9.2867	2.283
7.720	95.53	93.5747	9.2864	2.311
7.728	95.61	93.5722	9.2862	2.338
7.737	95.70	93.5697	9.2859	2.365
7.745	95.79	93.5672	9.2857	2.392
7.753	95.87	93.5647	9.2854	2.418
7.762	95.96	93.5623	9.2852	2.445
7.770	96.05	93.5599	9.2849	2.471
7.778	96.13	93.5574	9.2847	2.498
7.787	96.22	93.5550	9.2845	2.524
7.795	96.31	93.5526	9.2842	2.552
7.803	96.39	93.5502	9.2840	2.578
7.812	96.48	93.5479	9.2837	2.604
7.820	96.57	93.5455	9.2835	2.630
7.828	96.65	93.5432	9.2833	2.656
7.837	96.74	93.5409	9.2831	2.682
7.845	96.82	93.5386	9.2828	2.709
7.853	96.91	93.5363	9.2826	2.735
7.862	97.00	93.5340	9.2824	2.762
7.870	97.09	93.5318	9.2822	2.788
7.878	97.17	93.5296	9.2819	2.814
7.887	97.26	93.5273	9.2817	2.840
7.895	97.34	93.5251	9.2815	2.866
7.903	97.43	93.5229	9.2813	2.893
7.912	97.52	93.5208	9.2811	2.919
7.920	97.60	93.5186	9.2808	2.946
7.928	97.69	93.5165	9.2806	2.972
7.937	97.78	93.5143	9.2804	2.998
7.945	97.86	93.5122	9.2802	3.024
7.953	97.95	93.5101	9.2800	3.051
7.962	98.04	93.5080	9.2798	3.077
7.970	98.12	93.5059	9.2796	3.103
7.978	98.21	93.5038	9.2794	3.129
7.987	98.30	93.5018	9.2792	3.154
7.995	98.38	93.4997	9.2790	3.180
8.003	98.47	93.4977	9.2788	3.206
8.012	98.55	93.4957	9.2786	3.231
8.020	98.64	93.4937	9.2784	3.256
8.028	98.73	93.4917	9.2782	3.281
8.037	98.81	93.4897	9.2780	3.306
8.045	98.90	93.4877	9.2778	3.331
8.053	98.99	93.4858	9.2776	3.357
8.062	99.07	93.4839	9.2774	3.382
8.070	99.16	93.4819	9.2772	3.408
8.078	99.25	93.4800	9.2770	3.434
8.087	99.33	93.4781	9.2768	3.459
8.095	99.42	93.4762	9.2766	3.485
8.103	99.50	93.4744	9.2765	3.510
8.112	99.59	93.4725	9.2763	3.536
8.120	99.68	93.4707	9.2761	3.561
8.128	99.76	93.4688	9.2759	3.586
8.137	99.85	93.4670	9.2757	3.611
8.145	99.94	93.4652	9.2755	3.636
8.153	100.02	93.4634	9.2754	3.660
8.162	100.11	93.4616	9.2752	3.685
8.170	100.20	93.4599	9.2750	3.709
8.178	100.28	93.4581	9.2748	3.733
8.187	100.37	93.4564	9.2747	3.758
8.195	100.46	93.4546	9.2745	3.781
8.203	100.54	93.4529	9.2743	3.805
8.212	100.63	93.4512	9.2741	3.828
8.220	100.71	93.4495	9.2740	3.852
8.228	100.80	93.4478	9.2738	3.876
8.237	100.89	93.4461	9.2736	3.900
8.245	100.97	93.4444	9.2735	3.924
8.253	101.06	93.4427	9.2733	3.948
8.262	101.15	93.4411	9.2731	3.972
8.270	101.23	93.4394	9.2730	3.996
8.278	101.32	93.4378	9.2728	4.020
8.287	101.40	93.4362	9.2727	4.045
8.295	101.49	93.4346	9.2725	4.069
8.303	101.58	93.4330	9.2723	4.092
8.312	101.66	93.4314	9.2722	4.116
8.320	101.75	93.4299	9.2720	4.140
8.328	101.84	93.4283	9.2719	4.164
8.337	101.92	93.4268	9.2717	4.187
8.345	102.01	93.4252	9.2716	4.211
8.353	102.09	93.4237	9.2714	4.234
8.362	102.18	93.4222	9.2713	4.257
8.370	102.27	93.4207	9.2711	4.280
8.378	102.35	93.4192	9.2710	4.303
8.387	102.44	93.4177	9.2708	4.326
8.395	102.53	93.4162	9.2707	4.349
8.403	102.61	93.4147	9.2705	4.372
8.412	102.70	93.4133	9.2704	4.395
8.420	102.79	93.4118	9.2702	4.418
8.428	102.87	93.4103	9.2701	4.441
8.437	102.96	93.4089	9.2700	4.464
8.445	103.04	93.4075	9.2698	4.487
8.453	103.13	93.4061	9.2697	4.510
8.462	103.22	93.4046	9.2695	4.533
8.470	103.30	93.4032	9.2694	4.556
8.478	103.39	93.4018	9.2693	4.579
8.487	103.48	93.4005	9.2691	4.601
8.495	103.56	93.3991	9.2690	4.624
8.503	103.65	93.3977	9.2688	4.648
8.512	103.73	93.3964	9.2687	4.671
8.520	103.82	93.3950	9.2686	4.694
8.528	103.91	93.3937	9.2684	4.717
8.537	103.99	93.3924	9.2683	4.740
8.545	104.08	93.3910	9.2682	4.763
8.553	104.17	93.3897	9.2681	4.785
8.562	104.25	93.3884	9.2679	4.807
8.570	104.34	93.3871	9.2678	4.830
8.578	104.43	93.3858	9.2677	4.853
8.587	104.51	93.3845	9.2675	4.874
8.595	104.60	93.3833	9.2674	4.896
8.603	104.68	93.3820	9.2673	4.918
8.612	104.77	93.3808	9.2672	4.940
8.620	104.86	93.3795	9.2670	4.962
8.628	104.94	93.3783	9.2669	4.983
8.637	105.03	93.3771	9.2668	5.006
8.645	105.11	93.3759	9.2667	5.028
8.653	105.20	93.3747	9.2666	5.049
8.662	105.29	93.3735	9.2664	5.070
8.670	105.37	93.3723	9.2663	5.092
8.678	105.46	93.3711	9.2662	5.114
8.687	105.55	93.3700	9.2661	5.135
8.695	105.63	93.3688	9.2660	5.157
8.703	105.72	93.3677	9.2659	5.179
8.712	105.80	93.3665	9.2657	5.201
8.720	105.89	93.3654	9.2656	5.223
8.728	105.98	93.3642	9.2655	5.245
8.737	106.06	93.3631	9.2654	5.266

[step]
Isothermal 30.0 min
Time	Temperature	Weight	Weight	Heat Flow
min	Â°C	%	mg	mW
8.745	106.15	93.3620	9.2653	5.288
8.770	106.41	93.3587	9.2650	5.353
8.795	106.67	93.3554	9.2646	5.417
8.820	106.92	93.3521	9.2643	5.483
8.845	107.18	93.3490	9.2640	5.549
8.870	107.43	93.3458	9.2637	5.616
8.895	107.69	93.3428	9.2634	5.684
8.920	107.94	93.3398	9.2631	5.754
8.945	108.18	93.3369	9.2628	5.827
8.970	108.43	93.3340	9.2625	5.902
8.995	108.67	93.3312	9.2622	5.980
9.020	108.90	93.3284	9.2620	6.060
9.045	109.13	93.3256	9.2617	6.143
9.070	109.36	93.3228	9.2614	6.227
9.095	109.58	93.3201	9.2611	6.310
9.120	109.80	93.3174	9.2609	6.394
9.145	110.01	93.3148	9.2606	6.482
9.170	110.21	93.3122	9.2604	6.573
9.195	110.41	93.3096	9.2601	6.666
9.220	110.60	93.3071	9.2598	6.759
9.245	110.79	93.3046	9.2596	6.856
9.270	110.97	93.3021	9.2594	6.954
9.295	111.15	93.2997	9.2591	7.053
9.320	111.31	93.2973	9.2589	7.150
9.345	111.48	93.2950	9.2586	7.247
9.370	111.63	93.2927	9.2584	7.346
9.395	111.78	93.2904	9.2582	7.445
9.420	111.92	93.2882	9.2580	7.543
9.445	112.06	93.2859	9.2578	7.643
9.470	112.19	93.2837	9.2575	7.743
9.495	112.31	93.2816	9.2573	7.845
9.520	112.42	93.2794	9.2571	7.946
9.545	112.53	93.2773	9.2569	8.048
9.570	112.63	93.2752	9.2567	8.148
9.595	112.72	93.2732	9.2565	8.248
9.620	112.81	93.2712	9.2563	8.347
9.645	112.89	93.2692	9.2561	8.444
9.670	112.96	93.2672	9.2559	8.542
9.695	113.03	93.2652	9.2557	8.638
9.720	113.09	93.2633	9.2555	8.731
9.745	113.14	93.2614	9.2553	8.820
9.770	113.19	93.2595	9.2551	8.905
9.795	113.23	93.2577	9.2549	8.990
9.820	113.26	93.2559	9.2548	9.072
9.845	113.30	93.2542	9.2546	9.150
9.870	113.32	93.2525	9.2544	9.227
9.895	113.34	93.2508	9.2543	9.300
9.920	113.36	93.2492	9.2541	9.372
9.945	113.37	93.2475	9.2539	9.441
9.970	113.38	93.2459	9.2538	9.509
9.995	113.38	93.2444	9.2536	9.573
10.020	113.38	93.2428	9.2535	9.634
10.045	113.38	93.2413	9.2533	9.693
10.070	113.37	93.2398	9.2532	9.751
10.095	113.35	93.2383	9.2530	9.806
10.120	113.33	93.2368	9.2529	9.856
10.145	113.31	93.2354	9.2527	9.903
10.170	113.29	93.2339	9.2526	9.945
10.195	113.27	93.2326	9.2525	9.985
10.220	113.24	93.2312	9.2523	10.022
10.245	113.21	93.2299	9.2522	10.056
10.270	113.18	93.2286	9.2521	10.087
10.295	113.15	93.2274	9.2519	10.114
10.320	113.12	93.2261	9.2518	10.136
10.345	113.09	93.2250	9.2517	10.156
10.370	113.06	93.2238	9.2516	10.173
10.395	113.02	93.2227	9.2515	10.188
10.420	112.98	93.2217	9.2514	10.200
10.445	112.95	93.2206	9.2513	10.212
10.470	112.91	93.2196	9.2512	10.222
10.495	112.87	93.2186	9.2511	10.231
10.520	112.84	93.2177	9.2510	10.238
10.545	112.80	93.2168	9.2509	10.245
10.570	112.76	93.2159	9.2508	10.249
10.595	112.72	93.2150	9.2507	10.252
10.620	112.69	93.2142	9.2506	10.255
10.645	112.65	93.2134	9.2506	10.256
10.670	112.61	93.2126	9.2505	10.258
10.695	112.57	93.2118	9.2504	10.259
10.720	112.54	93.2111	9.2503	10.259
10.745	112.50	93.2103	9.2502	10.259
10.770	112.47	93.2096	9.2502	10.257
10.795	112.43	93.2089	9.2501	10.253
10.820	112.40	93.2081	9.2500	10.249
10.845	112.37	93.2074	9.2500	10.242
10.870	112.33	93.2067	9.2499	10.235
10.895	112.30	93.2060	9.2498	10.226
10.920	112.27	93.2054	9.2498	10.217
10.945	112.24	93.2047	9.2497	10.208
10.970	112.21	93.2042	9.2496	10.196
10.995	112.18	93.2036	9.2496	10.183
11.020	112.16	93.2031	9.2495	10.170
11.045	112.13	93.2025	9.2495	10.156
11.070	112.11	93.2019	9.2494	10.146
11.095	112.08	93.2014	9.2494	10.134
11.120	112.06	93.2008	9.2493	10.122
11.145	112.04	93.2003	9.2492	10.109
11.170	112.02	93.1998	9.2492	10.095
11.195	112.00	93.1993	9.2492	10.080
11.220	111.99	93.1988	9.2491	10.065
11.245	111.97	93.1984	9.2491	10.050
11.270	111.95	93.1980	9.2490	10.034
11.295	111.94	93.1976	9.2490	10.019
11.320	111.93	93.1972	9.2489	10.004
11.345	111.92	93.1968	9.2489	9.991
11.370	111.91	93.1964	9.2489	9.981
11.395	111.90	93.1960	9.2488	9.969
11.420	111.89	93.1956	9.2488	9.957
11.445	111.88	93.1952	9.2487	9.943
11.470	111.88	93.1948	9.2487	9.930
[...]
169.595	949.94	-0.1030	-0.0102	46.349
169.620	949.94	-0.1032	-0.0102	46.359
169.645	949.94	-0.1034	-0.0103	46.370
169.670	949.94	-0.1035	-0.0103	46.380
169.695	949.94	-0.1036	-0.0103	46.392
169.720	949.94	-0.1038	-0.0103	46.403
169.745	949.94	-0.1040	-0.0103	46.413
169.770	949.94	-0.1041	-0.0103	46.423
169.795	949.94	-0.1043	-0.0103	46.433
169.820	949.94	-0.1044	-0.0104	46.444
169.845	949.94	-0.1046	-0.0104	46.457
169.870	949.94	-0.1048	-0.0104	46.469
169.895	949.94	-0.1049	-0.0104	46.481
169.920	949.94	-0.1050	-0.0104	46.491
169.945	949.94	-0.1051	-0.0104	46.503
169.970	949.94	-0.1052	-0.0104	46.515
169.995	949.94	-0.1053	-0.0104	46.529
170.020	949.94	-0.1054	-0.0105	46.543
170.045	949.94	-0.1055	-0.0105	46.559
170.070	949.94	-0.1056	-0.0105	46.575
170.095	949.94	-0.1057	-0.0105	46.589
170.120	949.95	-0.1059	-0.0105	46.601
170.145	949.95	-0.1060	-0.0105	46.611
170.170	949.94	-0.1061	-0.0105	46.620
170.195	949.95	-0.1063	-0.0105	46.629
170.220	949.95	-0.1064	-0.0106	46.638
170.245	949.95	-0.1065	-0.0106	46.648
170.270	949.95	-0.1066	-0.0106	46.658
170.295	949.95	-0.1067	-0.0106	46.670
170.320	949.95	-0.1069	-0.0106	46.684
170.345	949.95	-0.1070	-0.0106	46.703
170.370	949.95	-0.1072	-0.0106	46.721
170.395	949.95	-0.1073	-0.0106	46.740
170.420	949.95	-0.1074	-0.0107	46.755
170.445	949.95	-0.1075	-0.0107	46.768
170.470	949.95	-0.1076	-0.0107	46.783
170.495	949.95	-0.1078	-0.0107	46.800
170.520	949.95	-0.1079	-0.0107	46.820
170.545	949.95	-0.1081	-0.0107	46.837
170.570	949.95	-0.1082	-0.0107	46.853
170.595	949.95	-0.1084	-0.0108	46.867
170.620	949.95	-0.1085	-0.0108	46.878
170.645	949.95	-0.1087	-0.0108	46.888
170.670	949.95	-0.1088	-0.0108	46.896
170.695	949.95	-0.1089	-0.0108	46.907
170.720	949.95	-0.1091	-0.0108	46.921
170.745	949.95	-0.1092	-0.0108	46.936
170.770	949.95	-0.1093	-0.0108	46.950
170.795	949.95	-0.1094	-0.0109	46.961
170.820	949.95	-0.1095	-0.0109	46.970
170.845	949.95	-0.1096	-0.0109	46.978
170.870	949.95	-0.1097	-0.0109	46.985
170.895	949.95	-0.1098	-0.0109	46.992
170.920	949.95	-0.1099	-0.0109	46.999
170.945	949.95	-0.1100	-0.0109	47.009
170.970	949.95	-0.1101	-0.0109	47.022
170.995	949.95	-0.1102	-0.0109	47.035
171.020	949.96	-0.1103	-0.0110	47.049
171.045	949.95	-0.1105	-0.0110	47.062
171.070	949.95	-0.1106	-0.0110	47.074
171.095	949.96	-0.1107	-0.0110	47.085
171.120	949.96	-0.1109	-0.0110	47.095
171.145	949.96	-0.1110	-0.0110	47.105
171.170	949.96	-0.1112	-0.0110	47.114
171.195	949.96	-0.1113	-0.0111	47.125
171.220	949.96	-0.1115	-0.0111	47.138
171.245	949.96	-0.1116	-0.0111	47.151
171.270	949.96	-0.1116	-0.0111	47.164
171.295	949.96	-0.1117	-0.0111	47.176
171.320	949.96	-0.1118	-0.0111	47.186
171.345	949.96	-0.1119	-0.0111	47.196
171.370	949.96	-0.1120	-0.0111	47.207
171.395	949.96	-0.1121	-0.0111	47.218
171.420	949.96	-0.1122	-0.0111	47.229
171.445	949.96	-0.1123	-0.0111	47.239
171.470	949.96	-0.1124	-0.0112	47.248
171.495	949.96	-0.1126	-0.0112	47.258
171.520	949.96	-0.1127	-0.0112	47.271
171.545	949.96	-0.1128	-0.0112	47.283
171.570	949.96	-0.1129	-0.0112	47.293
171.595	949.96	-0.1131	-0.0112	47.301
171.620	949.96	-0.1132	-0.0112	47.307
171.645	949.96	-0.1133	-0.0112	47.316
171.670	949.96	-0.1134	-0.0113	47.324
171.695	949.96	-0.1135	-0.0113	47.337
171.720	949.96	-0.1137	-0.0113	47.351
171.745	949.96	-0.1138	-0.0113	47.367
171.770	949.96	-0.1140	-0.0113	47.383
171.795	949.96	-0.1142	-0.0113	47.397
171.820	949.96	-0.1144	-0.0113	47.411
171.845	949.96	-0.1145	-0.0114	47.424
171.870	949.96	-0.1147	-0.0114	47.435
171.895	949.96	-0.1149	-0.0114	47.446
171.920	949.96	-0.1150	-0.0114	47.458
171.945	949.96	-0.1151	-0.0114	47.472
171.970	949.96	-0.1152	-0.0114	47.486
171.995	949.96	-0.1153	-0.0114	47.501
172.020	949.96	-0.1154	-0.0115	47.515
172.045	949.96	-0.1155	-0.0115	47.529
172.070	949.96	-0.1156	-0.0115	47.542
172.095	949.96	-0.1157	-0.0115	47.552
172.120	949.96	-0.1158	-0.0115	47.562
172.145	949.96	-0.1159	-0.0115	47.571
172.170	949.96	-0.1159	-0.0115	47.578
172.195	949.96	-0.1160	-0.0115	47.586
172.220	949.97	-0.1161	-0.0115	47.593
172.245	949.97	-0.1163	-0.0115	47.599
172.270	949.97	-0.1164	-0.0115	47.604
172.295	949.97	-0.1165	-0.0116	47.610
172.320	949.97	-0.1166	-0.0116	47.617
172.345	949.97	-0.1167	-0.0116	47.626
172.370	949.97	-0.1168	-0.0116	47.635
172.395	949.97	-0.1169	-0.0116	47.645
172.420	949.97	-0.1171	-0.0116	47.655
172.445	949.97	-0.1172	-0.0116	47.666
172.470	949.97	-0.1173	-0.0116	47.675
172.495	949.97	-0.1174	-0.0117	47.683
172.520	949.97	-0.1175	-0.0117	47.691
172.545	949.97	-0.1177	-0.0117	47.699
172.570	949.97	-0.1178	-0.0117	47.707
172.595	949.97	-0.1180	-0.0117	47.716
172.620	949.97	-0.1181	-0.0117	47.726
172.645	949.97	-0.1182	-0.0117	47.737
172.670	949.97	-0.1184	-0.0117	47.749
172.695	949.97	-0.1185	-0.0118	47.760
172.720	949.97	-0.1186	-0.0118	47.771
172.745	949.97	-0.1187	-0.0118	47.784
172.770	949.97	-0.1189	-0.0118	47.797
172.795	949.97	-0.1190	-0.0118	47.808
172.820	949.97	-0.1191	-0.0118	47.820
172.845	949.97	-0.1192	-0.0118	47.831
172.870	949.97	-0.1192	-0.0118	47.842
172.895	949.97	-0.1193	-0.0118	47.852
172.920	949.97	-0.1194	-0.0118	47.862
172.945	949.97	-0.1195	-0.0119	47.873
172.970	949.97	-0.1197	-0.0119	47.884
172.995	949.97	-0.1199	-0.0119	47.893
173.020	949.97	-0.1201	-0.0119	47.902
173.045	949.97	-0.1202	-0.0119	47.911
173.070	949.97	-0.1203	-0.0119	47.921
173.095	949.97	-0.1204	-0.0120	47.931
173.120	949.97	-0.1205	-0.0120	47.941
173.145	949.97	-0.1207	-0.0120	47.951
173.170	949.97	-0.1208	-0.0120	47.959
173.195	949.97	-0.1210	-0.0120	47.967
173.220	949.97	-0.1211	-0.0120	47.976
173.245	949.97	-0.1212	-0.0120	47.986
173.270	949.98	-0.1213	-0.0120	47.995
173.295	949.98	-0.1214	-0.0120	48.005
173.320	949.98	-0.1214	-0.0121	48.014
173.345	949.98	-0.1215	-0.0121	48.023
173.370	949.98	-0.1217	-0.0121	48.031
173.395	949.98	-0.1218	-0.0121	48.038
173.420	949.98	-0.1219	-0.0121	48.045
173.445	949.98	-0.1221	-0.0121	48.051
173.470	949.98	-0.1222	-0.0121	48.058
173.495	949.98	-0.1224	-0.0121	48.065
173.520	949.98	-0.1225	-0.0122	48.073
173.545	949.98	-0.1226	-0.0122	48.079
173.570	949.98	-0.1227	-0.0122	48.090
173.595	949.98	-0.1228	-0.0122	48.104
173.620	949.98	-0.1230	-0.0122	48.120
173.645	949.98	-0.1231	-0.0122	48.135
173.670	949.98	-0.1232	-0.0122	48.148
173.695	949.98	-0.1233	-0.0122	48.158
173.720	949.98	-0.1234	-0.0122	48.166
173.745	949.98	-0.1235	-0.0123	48.173
173.770	949.98	-0.1235	-0.0123	48.181
173.795	949.98	-0.1236	-0.0123	48.190
173.820	949.98	-0.1237	-0.0123	48.198
173.845	949.98	-0.1238	-0.0123	48.205
173.870	949.98	-0.1239	-0.0123	48.210
173.895	949.98	-0.1240	-0.0123	48.216
173.920	949.98	-0.1241	-0.0123	48.223
173.945	949.98	-0.1242	-0.0123	48.229
173.970	949.98	-0.1244	-0.0123	48.237
173.995	949.98	-0.1245	-0.0124	48.244
174.020	949.98	-0.1246	-0.0124	48.252
174.045	949.98	-0.1247	-0.0124	48.260
174.070	949.98	-0.1248	-0.0124	48.266
174.095	949.98	-0.1249	-0.0124	48.274
174.120	949.98	-0.1250	-0.0124	48.281
174.145	949.98	-0.1251	-0.0124	48.287
174.170	949.98	-0.1252	-0.0124	48.292
174.195	949.98	-0.1253	-0.0124	48.298
174.220	949.98	-0.1255	-0.0125	48.306
174.245	949.98	-0.1256	-0.0125	48.315
174.270	949.98	-0.1258	-0.0125	48.323
174.295	949.98	-0.1259	-0.0125	48.330
174.320	949.98	-0.1261	-0.0125	48.336
174.345	949.98	-0.1262	-0.0125	48.342
174.370	949.98	-0.1263	-0.0125	48.349
174.395	949.98	-0.1264	-0.0125	48.356
174.420	949.98	-0.1265	-0.0126	48.364
174.445	949.98	-0.1266	-0.0126	48.370
174.470	949.98	-0.1268	-0.0126	48.377
174.495	949.98	-0.1269	-0.0126	48.384
174.520	949.99	-0.1270	-0.0126	48.391
174.545	949.99	-0.1271	-0.0126	48.399
174.570	949.99	-0.1272	-0.0126	48.408
174.595	949.99	-0.1273	-0.0126	48.417
174.620	949.99	-0.1275	-0.0127	48.427
174.645	949.99	-0.1276	-0.0127	48.434
174.670	949.99	-0.1278	-0.0127	48.440
174.695	949.99	-0.1279	-0.0127	48.447
174.720	949.99	-0.1280	-0.0127	48.454
174.745	949.99	-0.1281	-0.0127	48.462
174.770	949.99	-0.1282	-0.0127	48.471
174.795	949.99	-0.1283	-0.0127	48.481
174.820	949.99	-0.1284	-0.0127	48.492
174.845	949.99	-0.1285	-0.0128	48.503
174.870	949.99	-0.1286	-0.0128	48.514
174.895	949.99	-0.1287	-0.0128	48.523
174.920	949.99	-0.1287	-0.0128	48.533
174.945	949.99	-0.1288	-0.0128	48.542
174.970	949.99	-0.1289	-0.0128	48.551
174.995	949.99	-0.1290	-0.0128	48.560
175.020	949.99	-0.1291	-0.0128	48.568
175.045	949.99	-0.1292	-0.0128	48.575
175.070	949.99	-0.1293	-0.0128	48.584
175.095	949.99	-0.1294	-0.0128	48.593
175.120	949.99	-0.1295	-0.0129	48.602
175.145	949.99	-0.1296	-0.0129	48.610
175.170	949.99	-0.1297	-0.0129	48.617
175.195	949.99	-0.1298	-0.0129	48.624
175.220	949.99	-0.1299	-0.0129	48.633
175.245	949.99	-0.1300	-0.0129	48.640
175.270	949.99	-0.1301	-0.0129	48.648
175.295	949.99	-0.1302	-0.0129	48.654
175.320	949.99	-0.1303	-0.0129	48.659
175.345	949.99	-0.1304	-0.0129	48.666
175.370	949.99	-0.1305	-0.0130	48.672
175.395	949.99	-0.1307	-0.0130	48.678
175.420	949.99	-0.1308	-0.0130	48.683
175.445	949.99	-0.1309	-0.0130	48.689
175.470	949.99	-0.1310	-0.0130	48.696
175.495	949.99	-0.1311	-0.0130	48.704
175.520	949.99	-0.1312	-0.0130	48.712
175.545	949.99	-0.1313	-0.0130	48.721
175.570	949.99	-0.1314	-0.0130	48.732
175.595	949.99	-0.1315	-0.0130	48.742
175.620	949.99	-0.1316	-0.0131	48.754
175.645	949.99	-0.1317	-0.0131	48.764
175.670	949.99	-0.1318	-0.0131	48.773
175.695	949.99	-0.1319	-0.0131	48.783
175.720	949.99	-0.1320	-0.0131	48.794
175.745	949.99	-0.1321	-0.0131	48.804
175.770	949.99	-0.1322	-0.0131	48.815
175.795	949.99	-0.1323	-0.0131	48.823
175.820	949.99	-0.1325	-0.0131	48.830
175.845	949.99	-0.1326	-0.0132	48.837
175.870	949.99	-0.1327	-0.0132	48.844
175.895	949.99	-0.1329	-0.0132	48.852
175.920	949.99	-0.1330	-0.0132	48.860
175.945	949.99	-0.1331	-0.0132	48.867
175.970	949.99	-0.1333	-0.0132	48.873
175.995	949.99	-0.1334	-0.0132	48.878
176.020	949.99	-0.1336	-0.0133	48.883
176.045	949.99	-0.1337	-0.0133	48.887
176.070	949.99	-0.1338	-0.0133	48.892
176.095	949.99	-0.1339	-0.0133	48.898
176.120	950.00	-0.1340	-0.0133	48.906
176.145	950.00	-0.1341	-0.0133	48.914
176.170	950.00	-0.1342	-0.0133	48.920
176.195	950.00	-0.1343	-0.0133	48.926
176.220	950.00	-0.1345	-0.0133	48.931
176.245	950.00	-0.1346	-0.0134	48.936
176.270	950.00	-0.1347	-0.0134	48.942
176.295	950.00	-0.1348	-0.0134	48.947
176.320	950.00	-0.1349	-0.0134	48.952
176.345	950.00	-0.1350	-0.0134	48.958
176.370	950.00	-0.1351	-0.0134	48.963
176.395	950.00	-0.1353	-0.0134	48.969
176.420	950.00	-0.1354	-0.0134	48.974
176.445	950.00	-0.1355	-0.0134	48.978
176.470	950.00	-0.1357	-0.0135	48.985
176.495	950.00	-0.1359	-0.0135	48.995
176.520	950.00	-0.1360	-0.0135	49.005
176.545	950.00	-0.1362	-0.0135	49.015
176.570	950.00	-0.1363	-0.0135	49.024
176.595	950.00	-0.1364	-0.0135	49.030
176.620	950.00	-0.1365	-0.0135	49.035
176.645	950.00	-0.1365	-0.0136	49.040
176.670	950.00	-0.1366	-0.0136	49.046
176.695	950.00	-0.1367	-0.0136	49.051
176.720	950.00	-0.1368	-0.0136	49.057
176.745	950.00	-0.1368	-0.0136	49.063
176.770	950.00	-0.1369	-0.0136	49.069
176.795	950.00	-0.1369	-0.0136	49.074
176.820	950.00	-0.1370	-0.0136	49.078
176.845	950.00	-0.1371	-0.0136	49.083
176.870	950.00	-0.1373	-0.0136	49.088
176.895	950.00	-0.1374	-0.0136	49.094
176.920	950.00	-0.1375	-0.0136	49.100
176.945	950.00	-0.1376	-0.0137	49.106
176.970	950.00	-0.1377	-0.0137	49.113
176.995	950.00	-0.1378	-0.0137	49.121
177.020	950.00	-0.1380	-0.0137	49.130
177.045	950.00	-0.1381	-0.0137	49.138
177.070	950.00	-0.1382	-0.0137	49.146
177.095	950.00	-0.1383	-0.0137	49.159
177.120	950.00	-0.1384	-0.0137	49.174
177.145	950.00	-0.1385	-0.0137	49.188
177.170	950.00	-0.1387	-0.0138	49.198
177.195	950.00	-0.1388	-0.0138	49.205
177.220	950.00	-0.1389	-0.0138	49.213
177.245	950.00	-0.1391	-0.0138	49.220
177.270	950.00	-0.1392	-0.0138	49.228
177.295	950.00	-0.1393	-0.0138	49.235
177.320	950.00	-0.1394	-0.0138	49.241
177.345	950.00	-0.1395	-0.0138	49.247
177.370	950.00	-0.1396	-0.0139	49.254
177.395	950.00	-0.1397	-0.0139	49.263
177.420	950.00	-0.1398	-0.0139	49.270
177.445	950.00	-0.1398	-0.0139	49.276
177.470	950.00	-0.1399	-0.0139	49.280
177.495	950.00	-0.1399	-0.0139	49.284
177.520	950.01	-0.1400	-0.0139	49.289
177.545	950.01	-0.1401	-0.0139	49.295
177.570	950.01	-0.1402	-0.0139	49.300
177.595	950.01	-0.1403	-0.0139	49.304
177.620	950.01	-0.1404	-0.0139	49.308
177.645	950.01	-0.1406	-0.0140	49.312
177.670	950.01	-0.1407	-0.0140	49.319
177.695	950.01	-0.1409	-0.0140	49.328
177.720	950.01	-0.1410	-0.0140	49.339
177.745	950.01	-0.1411	-0.0140	49.349
177.770	950.01	-0.1412	-0.0140	49.359
177.795	950.01	-0.1413	-0.0140	49.367
177.820	950.01	-0.1415	-0.0140	49.373
177.845	950.01	-0.1416	-0.0140	49.378
177.870	950.01	-0.1416	-0.0141	49.383
177.895	950.01	-0.1418	-0.0141	49.388
177.920	950.01	-0.1419	-0.0141	49.392
177.945	950.01	-0.1420	-0.0141	49.396
177.970	950.01	-0.1422	-0.0141	49.400
177.995	950.01	-0.1423	-0.0141	49.404
178.020	950.01	-0.1424	-0.0141	49.409
178.045	950.01	-0.1425	-0.0141	49.412
178.070	950.01	-0.1426	-0.0142	49.414
178.095	950.01	-0.1428	-0.0142	49.416
178.120	950.01	-0.1429	-0.0142	49.421
178.145	950.01	-0.1430	-0.0142	49.425
178.170	950.01	-0.1431	-0.0142	49.431
178.195	950.01	-0.1432	-0.0142	49.435
178.220	950.01	-0.1433	-0.0142	49.439
178.245	950.01	-0.1434	-0.0142	49.442
178.270	950.01	-0.1435	-0.0142	49.445
178.295	950.01	-0.1436	-0.0143	49.450
178.320	950.01	-0.1438	-0.0143	49.456
178.345	950.01	-0.1439	-0.0143	49.463
178.370	950.01	-0.1440	-0.0143	49.471
178.395	950.01	-0.1441	-0.0143	49.480
178.420	950.01	-0.1441	-0.0143	49.489
178.445	950.01	-0.1442	-0.0143	49.497
178.470	950.01	-0.1443	-0.0143	49.507
178.495	950.01	-0.1444	-0.0143	49.516
178.520	950.01	-0.1445	-0.0143	49.525
178.545	950.01	-0.1447	-0.0144	49.536
178.570	950.01	-0.1448	-0.0144	49.547
178.595	950.01	-0.1449	-0.0144	49.558
178.620	950.01	-0.1450	-0.0144	49.566
178.645	950.01	-0.1451	-0.0144	49.572
178.670	950.01	-0.1452	-0.0144	49.578
178.695	950.01	-0.1453	-0.0144	49.584
178.720	950.01	-0.1454	-0.0144	49.590
178.745	950.01	-0.1456	-0.0144	49.596
178.770	950.01	-0.1457	-0.0145	49.601
178.795	950.01	-0.1459	-0.0145	49.608
178.820	950.01	-0.1460	-0.0145	49.614
178.845	950.01	-0.1461	-0.0145	49.621
178.870	950.01	-0.1462	-0.0145	49.629
178.895	950.01	-0.1463	-0.0145	49.636
178.920	950.01	-0.1464	-0.0145	49.643
178.945	950.01	-0.1465	-0.0145	49.650
178.970	950.01	-0.1467	-0.0146	49.657
178.995	950.01	-0.1468	-0.0146	49.664
179.020	950.01	-0.1470	-0.0146	49.673
179.045	950.01	-0.1471	-0.0146	49.681
179.070	950.01	-0.1472	-0.0146	49.689
179.095	950.01	-0.1473	-0.0146	49.696
179.120	950.01	-0.1474	-0.0146	49.703
179.145	950.01	-0.1475	-0.0146	49.710
179.170	950.01	-0.1476	-0.0146	49.717
179.195	950.01	-0.1478	-0.0147	49.722
179.220	950.01	-0.1479	-0.0147	49.727
179.245	950.01	-0.1480	-0.0147	49.733
179.270	950.01	-0.1481	-0.0147	49.739
179.295	950.01	-0.1482	-0.0147	49.744
179.320	950.01	-0.1483	-0.0147	49.749
179.345	950.01	-0.1483	-0.0147	49.752
179.370	950.01	-0.1484	-0.0147	49.756
179.395	950.02	-0.1485	-0.0147	49.761
179.420	950.02	-0.1486	-0.0147	49.768
179.445	950.02	-0.1487	-0.0148	49.776
179.470	950.01	-0.1488	-0.0148	49.785
179.495	950.01	-0.1490	-0.0148	49.794
179.520	950.01	-0.1491	-0.0148	49.801
179.545	950.02	-0.1492	-0.0148	49.807
179.570	950.02	-0.1494	-0.0148	49.812
179.595	950.02	-0.1495	-0.0148	49.817
179.620	950.02	-0.1496	-0.0149	49.822
179.645	950.02	-0.1498	-0.0149	49.827
179.670	950.02	-0.1499	-0.0149	49.834
179.695	950.02	-0.1500	-0.0149	49.844
179.720	950.02	-0.1501	-0.0149	49.856
179.745	950.02	-0.1503	-0.0149	49.869
179.770	950.02	-0.1504	-0.0149	49.880
179.795	950.02	-0.1506	-0.0149	49.888
179.820	950.02	-0.1507	-0.0150	49.895
179.845	950.02	-0.1509	-0.0150	49.899
179.870	950.02	-0.1510	-0.0150	49.904
179.895	950.02	-0.1511	-0.0150	49.909
179.920	950.02	-0.1511	-0.0150	49.914
179.945	950.02	-0.1512	-0.0150	49.920
179.970	950.02	-0.1512	-0.0150	49.925
179.995	950.02	-0.1514	-0.0150	49.932
180.020	950.02	-0.1515	-0.0150	49.939
180.045	950.02	-0.1517	-0.0151	49.947
180.070	950.02	-0.1518	-0.0151	49.959
180.095	950.02	-0.1519	-0.0151	49.971
180.120	950.02	-0.1520	-0.0151	49.983
180.145	950.02	-0.1521	-0.0151	49.990
180.170	950.02	-0.1522	-0.0151	49.994
180.195	950.02	-0.1523	-0.0151	49.998
180.220	950.02	-0.1524	-0.0151	50.001
180.245	950.02	-0.1525	-0.0151	50.007
180.270	950.02	-0.1526	-0.0151	50.015
180.295	950.02	-0.1528	-0.0152	50.022
180.320	950.02	-0.1529	-0.0152	50.030
180.345	950.02	-0.1530	-0.0152	50.035
180.370	950.02	-0.1531	-0.0152	50.039
180.395	950.02	-0.1532	-0.0152	50.043
180.420	950.02	-0.1533	-0.0152	50.048
180.445	950.02	-0.1535	-0.0152	50.057
180.470	950.02	-0.1536	-0.0152	50.066
180.495	950.02	-0.1537	-0.0153	50.074
180.520	950.02	-0.1539	-0.0153	50.081
180.545	950.02	-0.1541	-0.0153	50.087
180.570	950.02	-0.1542	-0.0153	50.094
180.595	950.02	-0.1543	-0.0153	50.101
180.620	950.02	-0.1544	-0.0153	50.107
180.645	950.02	-0.1545	-0.0153	50.113
180.670	950.02	-0.1546	-0.0153	50.118
180.695	950.02	-0.1547	-0.0154	50.122
180.720	950.02	-0.1548	-0.0154	50.127
180.745	950.02	-0.1549	-0.0154	50.132
180.770	950.02	-0.1550	-0.0154	50.139
180.795	950.02	-0.1551	-0.0154	50.145
180.820	950.02	-0.1552	-0.0154	50.153
180.845	950.02	-0.1553	-0.0154	50.160
180.870	950.02	-0.1554	-0.0154	50.168
180.895	950.02	-0.1554	-0.0154	50.176
180.920	950.03	-0.1555	-0.0154	50.184
180.945	950.03	-0.1556	-0.0154	50.190
180.970	950.03	-0.1557	-0.0155	50.194
180.995	950.03	-0.1558	-0.0155	50.197
181.020	950.03	-0.1560	-0.0155	50.199
181.045	950.03	-0.1561	-0.0155	50.201
181.070	950.03	-0.1563	-0.0155	50.203
181.095	950.03	-0.1565	-0.0155	50.206
181.120	950.03	-0.1566	-0.0155	50.211
181.145	950.03	-0.1567	-0.0155	50.216
181.170	950.03	-0.1568	-0.0156	50.220
181.195	950.03	-0.1569	-0.0156	50.224
181.220	950.03	-0.1569	-0.0156	50.229
181.245	950.03	-0.1570	-0.0156	50.235
181.270	950.03	-0.1571	-0.0156	50.242
181.295	950.03	-0.1572	-0.0156	50.248
181.320	950.03	-0.1574	-0.0156	50.253
181.345	950.03	-0.1575	-0.0156	50.259
181.370	950.03	-0.1576	-0.0156	50.264
181.395	950.03	-0.1577	-0.0156	50.270
181.420	950.03	-0.1578	-0.0157	50.277
181.445	950.03	-0.1579	-0.0157	50.284
181.470	950.03	-0.1579	-0.0157	50.292
181.495	950.03	-0.1580	-0.0157	50.297
181.520	950.03	-0.1581	-0.0157	50.303
181.545	950.03	-0.1582	-0.0157	50.309
181.570	950.03	-0.1583	-0.0157	50.316
181.595	950.03	-0.1584	-0.0157	50.324
181.620	950.03	-0.1585	-0.0157	50.332
181.645	950.03	-0.1586	-0.0157	50.340
181.670	950.03	-0.1587	-0.0158	50.345
181.695	950.03	-0.1588	-0.0158	50.350
181.720	950.03	-0.1590	-0.0158	50.354
181.745	950.03	-0.1591	-0.0158	50.360
181.770	950.03	-0.1592	-0.0158	50.366
181.795	950.03	-0.1594	-0.0158	50.372
181.820	950.03	-0.1595	-0.0158	50.379
181.845	950.03	-0.1596	-0.0158	50.384
181.870	950.03	-0.1598	-0.0159	50.390
181.895	950.03	-0.1599	-0.0159	50.397
181.920	950.03	-0.1600	-0.0159	50.405
181.945	950.03	-0.1601	-0.0159	50.412
181.970	950.03	-0.1602	-0.0159	50.417
181.995	950.03	-0.1603	-0.0159	50.421
182.020	950.03	-0.1604	-0.0159	50.425
182.045	950.03	-0.1605	-0.0159	50.429
182.070	950.03	-0.1606	-0.0159	50.434
182.095	950.03	-0.1607	-0.0160	50.437
182.120	950.03	-0.1608	-0.0160	50.442
182.145	950.03	-0.1609	-0.0160	50.447
182.170	950.03	-0.1610	-0.0160	50.454
182.195	950.03	-0.1611	-0.0160	50.461
182.220	950.03	-0.1612	-0.0160	50.468
182.245	950.03	-0.1612	-0.0160	50.473
182.270	950.03	-0.1613	-0.0160	50.478
182.295	950.03	-0.1614	-0.0160	50.482
182.320	950.03	-0.1615	-0.0160	50.485
182.345	950.03	-0.1616	-0.0160	50.489
182.370	950.03	-0.1617	-0.0160	50.492
182.395	950.03	-0.1618	-0.0161	50.495
182.420	950.03	-0.1619	-0.0161	50.499
182.445	950.03	-0.1620	-0.0161	50.504
182.470	950.03	-0.1621	-0.0161	50.509
182.495	950.03	-0.1623	-0.0161	50.516
182.520	950.03	-0.1624	-0.0161	50.522
182.545	950.03	-0.1624	-0.0161	50.530
182.570	950.03	-0.1625	-0.0161	50.537
182.595	950.03	-0.1626	-0.0161	50.546
182.620	950.03	-0.1627	-0.0161	50.555
182.645	950.03	-0.1628	-0.0162	50.563
182.670	950.04	-0.1629	-0.0162	50.567
182.695	950.04	-0.1630	-0.0162	50.571
182.720		-0.1630	-0.0162
182.737		-0.1631	-0.0162