File: examples/kas_kinetics/PCOx50_1.txt
Filename	Ox50PC250_1
Instrument name	0650-0369 (192.168.1.2)
Operator	jla278
rundate	12/21/2022
Sample name	Ox50PC250_1
proceduresegments	Select Gas: Gas 2 ; Ramp 10.00 °C/min to 110.00 °C; Isothermal 30.0 min; Ramp 50.00 °C/min to 950.00 °C; Isothermal 5.0 min; Data Off ; Equilibrate 30.00 °C
[step]
Ramp 10.00 °C/min to 110.00 °C
Time	Temperature	Weight	Weight	Heat Flow
min	°C	%	mg	mW
0.003		100.1289	1.5992
0.012		100.2942	1.6018
0.020		100.4342	1.6040
0.028		100.5486	1.6059
0.037		100.6402	1.6073
0.045	22.06	100.7090	1.6084	-29.158
0.053	22.10	100.7568	1.6092	-29.100
0.062	22.14	100.7859	1.6097	-29.049
0.070	22.17	100.8011	1.6099	-29.001
0.078	22.21	100.8070	1.6100	-28.954
0.087	22.25	100.8058	1.6100	-28.908
0.095	22.29	100.8005	1.6099	-28.863
0.103	22.33	100.7933	1.6098	-28.819
0.112	22.37	100.7850	1.6096	-28.776
0.120	22.41	100.7758	1.6095	-28.734
0.128	22.45	100.7659	1.6093	-28.691
0.137	22.48	100.7554	1.6092	-28.650
0.145	22.52	100.7445	1.6090	-28.608
0.153	22.56	100.7334	1.6088	-28.566
0.162	22.60	100.7223	1.6086	-28.524
0.170	22.63	100.7116	1.6085	-28.481
0.178	22.67	100.7013	1.6083	-28.440
0.187	22.71	100.6914	1.6081	-28.399
0.195	22.74	100.6820	1.6080	-28.358
0.203	22.78	100.6731	1.6079	-28.316
0.212	22.82	100.6645	1.6077	-28.276
0.220	22.85	100.6562	1.6076	-28.235
0.228	22.89	100.6483	1.6075	-28.193
0.237	22.93	100.6406	1.6073	-28.152
0.245	22.96	100.6331	1.6072	-28.111
0.253	23.00	100.6257	1.6071	-28.070
0.262	23.04	100.6185	1.6070	-28.028
0.270	23.07	100.6113	1.6069	-27.987
0.278	23.11	100.6042	1.6068	-27.947
0.287	23.14	100.5971	1.6066	-27.908
0.295	23.18	100.5900	1.6065	-27.868
0.303	23.21	100.5829	1.6064	-27.829
0.312	23.25	100.5757	1.6063	-27.790
0.320	23.28	100.5685	1.6062	-27.752
0.328	23.32	100.5612	1.6061	-27.714
0.337	23.36	100.5538	1.6059	-27.675
0.345	23.39	100.5463	1.6058	-27.637
0.353	23.43	100.5388	1.6057	-27.600
0.362	23.46	100.5311	1.6056	-27.564
0.370	23.50	100.5234	1.6055	-27.526
0.378	23.53	100.5157	1.6053	-27.488
0.387	23.57	100.5078	1.6052	-27.450
0.395	23.60	100.4999	1.6051	-27.413
0.403	23.64	100.4919	1.6050	-27.376
0.412	23.68	100.4838	1.6048	-27.339
0.420	23.71	100.4757	1.6047	-27.303
0.428	23.75	100.4675	1.6046	-27.267
0.437	23.78	100.4592	1.6044	-27.231
0.445	23.82	100.4507	1.6043	-27.195
0.453	23.86	100.4421	1.6042	-27.160
0.462	23.89	100.4335	1.6040	-27.126
0.470	23.93	100.4247	1.6039	-27.093
0.478	23.97	100.4159	1.6037	-27.060
0.487	24.01	100.4069	1.6036	-27.028
0.495	24.04	100.3978	1.6035	-26.996
0.503	24.08	100.3886	1.6033	-26.964
0.512	24.12	100.3793	1.6032	-26.932
0.520	24.16	100.3700	1.6030	-26.901
0.528	24.20	100.3606	1.6029	-26.870
0.537	24.24	100.3513	1.6027	-26.840
0.545	24.28	100.3419	1.6026	-26.810
0.553	24.32	100.3324	1.6024	-26.781
0.562	24.36	100.3230	1.6023	-26.751
0.570	24.40	100.3136	1.6021	-26.723
0.578	24.44	100.3042	1.6020	-26.694
0.587	24.48	100.2949	1.6018	-26.664
0.595	24.52	100.2856	1.6017	-26.636
0.603	24.57	100.2763	1.6015	-26.607
0.612	24.61	100.2672	1.6014	-26.580
0.620	24.65	100.2581	1.6012	-26.551
0.628	24.70	100.2490	1.6011	-26.523
0.637	24.74	100.2401	1.6009	-26.495
0.645	24.79	100.2313	1.6008	-26.468
0.653	24.83	100.2227	1.6007	-26.442
0.662	24.87	100.2142	1.6005	-26.415
0.670	24.92	100.2058	1.6004	-26.388
0.678	24.97	100.1975	1.6003	-26.362
0.687	25.01	100.1894	1.6001	-26.336
0.695	25.06	100.1814	1.6000	-26.308
0.703	25.10	100.1735	1.5999	-26.281
0.712	25.15	100.1658	1.5998	-26.254
0.720	25.20	100.1582	1.5996	-26.226
0.728	25.25	100.1507	1.5995	-26.198
0.737	25.30	100.1434	1.5994	-26.169
0.745	25.35	100.1362	1.5993	-26.141
0.753	25.40	100.1291	1.5992	-26.114
0.762	25.45	100.1221	1.5991	-26.084
0.770	25.50	100.1153	1.5989	-26.056
0.778	25.55	100.1086	1.5988	-26.028
0.787	25.60	100.1020	1.5987	-26.002
0.795	25.65	100.0956	1.5986	-25.974
0.803	25.70	100.0893	1.5985	-25.946
0.812	25.75	100.0831	1.5984	-25.918
0.820	25.81	100.0770	1.5983	-25.888
0.828	25.86	100.0710	1.5982	-25.858
0.837	25.91	100.0651	1.5981	-25.828
0.845	25.97	100.0593	1.5980	-25.799
0.853	26.02	100.0535	1.5980	-25.768
0.862	26.08	100.0479	1.5979	-25.736
0.870	26.13	100.0424	1.5978	-25.703
0.878	26.19	100.0370	1.5977	-25.670
0.887	26.25	100.0316	1.5976	-25.638
0.895	26.30	100.0263	1.5975	-25.603
0.903	26.36	100.0211	1.5974	-25.570
0.912	26.42	100.0159	1.5974	-25.537
0.920	26.48	100.0108	1.5973	-25.504
0.928	26.53	100.0057	1.5972	-25.470
0.937	26.59	100.0007	1.5971	-25.436
0.945	26.65	99.9956	1.5970	-25.403
0.953	26.71	99.9906	1.5970	-25.370
0.962	26.77	99.9856	1.5969	-25.336
0.970	26.83	99.9806	1.5968	-25.301
0.978	26.89	99.9755	1.5967	-25.266
0.987	26.95	99.9704	1.5966	-25.231
0.995	27.02	99.9652	1.5965	-25.195
1.003	27.08	99.9601	1.5965	-25.158
1.012	27.14	99.9549	1.5964	-25.123
1.020	27.20	99.9497	1.5963	-25.086
1.028	27.27	99.9444	1.5962	-25.048
1.037	27.33	99.9391	1.5961	-25.008
1.045	27.39	99.9337	1.5960	-24.969
1.053	27.46	99.9282	1.5960	-24.928
1.062	27.53	99.9228	1.5959	-24.887
1.070	27.59	99.9173	1.5958	-24.846
1.078	27.66	99.9118	1.5957	-24.805
1.087	27.72	99.9062	1.5956	-24.762
1.095	27.79	99.9006	1.5955	-24.718
1.103	27.86	99.8950	1.5954	-24.674
1.112	27.92	99.8893	1.5953	-24.630
1.120	27.99	99.8837	1.5952	-24.585
1.128	28.06	99.8780	1.5952	-24.540
1.137	28.13	99.8723	1.5951	-24.494
1.145	28.20	99.8666	1.5950	-24.449
1.153	28.27	99.8609	1.5949	-24.401
1.162	28.34	99.8552	1.5948	-24.353
1.170	28.41	99.8495	1.5947	-24.306
1.178	28.48	99.8439	1.5946	-24.257
1.187	28.55	99.8383	1.5945	-24.208
1.195	28.62	99.8328	1.5944	-24.159
1.203	28.69	99.8272	1.5943	-24.109
1.212	28.77	99.8217	1.5943	-24.058
1.220	28.84	99.8163	1.5942	-24.006
1.228	28.91	99.8108	1.5941	-23.954
1.237	28.99	99.8055	1.5940	-23.902
1.245	29.06	99.8002	1.5939	-23.849
1.253	29.13	99.7949	1.5938	-23.795
1.262	29.21	99.7897	1.5937	-23.740
1.270	29.28	99.7846	1.5937	-23.685
1.278	29.36	99.7795	1.5936	-23.628
1.287	29.44	99.7744	1.5935	-23.572
1.295	29.51	99.7694	1.5934	-23.516
1.303	29.59	99.7645	1.5933	-23.459
1.312	29.67	99.7596	1.5933	-23.402
1.320	29.74	99.7547	1.5932	-23.343
1.328	29.82	99.7498	1.5931	-23.284
1.337	29.90	99.7450	1.5930	-23.225
1.345	29.97	99.7402	1.5930	-23.165
1.353	30.05	99.7354	1.5929	-23.105
1.362	30.13	99.7307	1.5928	-23.044
1.370	30.21	99.7259	1.5927	-22.983
1.378	30.29	99.7212	1.5927	-22.921
1.387	30.37	99.7166	1.5926	-22.858
1.395	30.45	99.7120	1.5925	-22.795
1.403	30.53	99.7074	1.5924	-22.732
1.412	30.61	99.7029	1.5924	-22.669
1.420	30.69	99.6983	1.5923	-22.606
1.428	30.78	99.6938	1.5922	-22.543
1.437	30.86	99.6892	1.5921	-22.479
1.445	30.94	99.6847	1.5921	-22.413
1.453	31.02	99.6803	1.5920	-22.346
1.462	31.10	99.6758	1.5919	-22.280
1.470	31.19	99.6713	1.5919	-22.214
1.478	31.27	99.6668	1.5918	-22.147
1.487	31.35	99.6624	1.5917	-22.080
1.495	31.44	99.6579	1.5916	-22.013
1.503	31.52	99.6535	1.5916	-21.944
1.512	31.61	99.6491	1.5915	-21.874
1.520	31.69	99.6447	1.5914	-21.807
1.528	31.78	99.6402	1.5914	-21.739
1.537	31.86	99.6357	1.5913	-21.670
1.545	31.95	99.6313	1.5912	-21.601
1.553	32.03	99.6268	1.5911	-21.532
1.562	32.12	99.6222	1.5911	-21.464
1.570	32.20	99.6177	1.5910	-21.394
1.578	32.29	99.6132	1.5909	-21.324
1.587	32.38	99.6086	1.5909	-21.255
1.595	32.46	99.6040	1.5908	-21.185
1.603	32.55	99.5994	1.5907	-21.113
1.612	32.64	99.5948	1.5906	-21.042
1.620	32.72	99.5903	1.5906	-20.969
1.628	32.81	99.5857	1.5905	-20.896
1.637	32.90	99.5811	1.5904	-20.824
1.645	32.99	99.5765	1.5903	-20.750
1.653	33.07	99.5719	1.5903	-20.676
1.662	33.16	99.5672	1.5902	-20.601
1.670	33.25	99.5626	1.5901	-20.526
1.678	33.34	99.5579	1.5900	-20.451
1.687	33.43	99.5532	1.5900	-20.376
1.695	33.52	99.5485	1.5899	-20.301
1.703	33.61	99.5437	1.5898	-20.226
1.712	33.70	99.5390	1.5897	-20.152
1.720	33.79	99.5342	1.5897	-20.075
1.728	33.88	99.5295	1.5896	-19.999
1.737	33.97	99.5247	1.5895	-19.923
1.745	34.06	99.5200	1.5894	-19.846
1.753	34.15	99.5152	1.5894	-19.769
1.762	34.24	99.5105	1.5893	-19.693
1.770	34.33	99.5058	1.5892	-19.617
1.778	34.42	99.5010	1.5891	-19.539
1.787	34.51	99.4962	1.5891	-19.462
1.795	34.60	99.4914	1.5890	-19.384
1.803	34.69	99.4866	1.5889	-19.307
1.812	34.79	99.4817	1.5888	-19.231
1.820	34.88	99.4768	1.5887	-19.154
1.828	34.97	99.4719	1.5887	-19.077
1.837	35.06	99.4670	1.5886	-18.999
1.845	35.15	99.4621	1.5885	-18.920
1.853	35.25	99.4571	1.5884	-18.842
1.862	35.34	99.4521	1.5884	-18.765
1.870	35.43	99.4471	1.5883	-18.687
1.878	35.52	99.4421	1.5882	-18.609
1.887	35.62	99.4371	1.5881	-18.530
1.895	35.71	99.4322	1.5880	-18.451
1.903	35.80	99.4272	1.5880	-18.373
1.912	35.89	99.4222	1.5879	-18.295
1.920	35.99	99.4172	1.5878	-18.216
1.928	36.08	99.4121	1.5877	-18.136
1.937	36.17	99.4071	1.5876	-18.056
1.945	36.27	99.4020	1.5876	-17.976
1.953	36.36	99.3969	1.5875	-17.896
1.962	36.45	99.3918	1.5874	-17.814
1.970	36.55	99.3867	1.5873	-17.734
1.978	36.64	99.3815	1.5872	-17.653
1.987	36.73	99.3763	1.5871	-17.571
1.995	36.83	99.3711	1.5871	-17.489
2.003	36.92	99.3659	1.5870	-17.407
2.012	37.02	99.3606	1.5869	-17.326
2.020	37.11	99.3553	1.5868	-17.244
2.028	37.20	99.3501	1.5867	-17.162
2.037	37.30	99.3448	1.5866	-17.081
2.045	37.39	99.3396	1.5866	-17.001
2.053	37.49	99.3344	1.5865	-16.919
2.062	37.58	99.3292	1.5864	-16.837
2.070	37.67	99.3240	1.5863	-16.755
2.078	37.77	99.3189	1.5862	-16.673
2.087	37.86	99.3137	1.5861	-16.592
2.095	37.96	99.3086	1.5861	-16.511
2.103	38.05	99.3035	1.5860	-16.430
2.112	38.15	99.2984	1.5859	-16.349
2.120	38.24	99.2933	1.5858	-16.268
2.128	38.34	99.2883	1.5857	-16.185
2.137	38.43	99.2832	1.5857	-16.103
2.145	38.53	99.2782	1.5856	-16.021
2.153	38.62	99.2731	1.5855	-15.939
2.162	38.72	99.2681	1.5854	-15.856
2.170	38.81	99.2630	1.5853	-15.773
2.178	38.91	99.2579	1.5853	-15.691
2.187	39.00	99.2529	1.5852	-15.608
2.195	39.10	99.2478	1.5851	-15.524
2.203	39.19	99.2428	1.5850	-15.440
2.212	39.29	99.2377	1.5849	-15.358
2.220	39.38	99.2327	1.5848	-15.276
2.228	39.47	99.2276	1.5848	-15.195
2.237	39.57	99.2225	1.5847	-15.113
2.245	39.66	99.2174	1.5846	-15.032
2.253	39.76	99.2123	1.5845	-14.949
2.262	39.85	99.2073	1.5844	-14.866
2.270	39.95	99.2022	1.5844	-14.784
2.278	40.04	99.1971	1.5843	-14.703
2.287	40.14	99.1920	1.5842	-14.621
2.295	40.23	99.1869	1.5841	-14.538
2.303	40.33	99.1819	1.5840	-14.456
2.312	40.42	99.1768	1.5840	-14.372
2.320	40.52	99.1717	1.5839	-14.289
2.328	40.61	99.1666	1.5838	-14.205
2.337	40.71	99.1615	1.5837	-14.124
2.345	40.80	99.1564	1.5836	-14.042
2.353	40.90	99.1514	1.5836	-13.960
2.362	40.99	99.1463	1.5835	-13.877
2.370	41.09	99.1413	1.5834	-13.794
2.378	41.18	99.1362	1.5833	-13.713
2.387	41.28	99.1312	1.5832	-13.631
2.395	41.37	99.1262	1.5831	-13.549
2.403	41.47	99.1211	1.5831	-13.468
2.412	41.56	99.1161	1.5830	-13.388
2.420	41.66	99.1111	1.5829	-13.305
2.428	41.75	99.1062	1.5828	-13.222
2.437	41.85	99.1012	1.5827	-13.138
2.445	41.94	99.0963	1.5827	-13.056
2.453	42.04	99.0914	1.5826	-12.975
2.462	42.13	99.0864	1.5825	-12.893
2.470	42.22	99.0815	1.5824	-12.811
2.478	42.32	99.0766	1.5824	-12.731
2.487	42.41	99.0716	1.5823	-12.650
2.495	42.51	99.0667	1.5822	-12.569
2.503	42.60	99.0617	1.5821	-12.488
2.512	42.70	99.0567	1.5820	-12.407
2.520	42.79	99.0517	1.5820	-12.328
2.528	42.88	99.0468	1.5819	-12.247
2.537	42.98	99.0418	1.5818	-12.167
2.545	43.07	99.0368	1.5817	-12.087
2.553	43.17	99.0319	1.5816	-12.007
2.562	43.26	99.0271	1.5816	-11.927
2.570	43.36	99.0222	1.5815	-11.846
2.578	43.45	99.0174	1.5814	-11.765
2.587	43.54	99.0127	1.5813	-11.686
2.595	43.64	99.0079	1.5813	-11.607
2.603	43.73	99.0032	1.5812	-11.528
2.612	43.82	98.9986	1.5811	-11.449
2.620	43.92	98.9939	1.5810	-11.369
2.628	44.01	98.9892	1.5810	-11.289
2.637	44.11	98.9846	1.5809	-11.210
2.645	44.20	98.9799	1.5808	-11.131
2.653	44.29	98.9753	1.5807	-11.051
2.662	44.39	98.9707	1.5807	-10.973
2.670	44.48	98.9661	1.5806	-10.894
2.678	44.57	98.9615	1.5805	-10.814
2.687	44.67	98.9569	1.5804	-10.735
2.695	44.76	98.9523	1.5804	-10.655
2.703	44.85	98.9478	1.5803	-10.576
2.712	44.95	98.9432	1.5802	-10.497
2.720	45.04	98.9387	1.5802	-10.417
2.728	45.13	98.9342	1.5801	-10.338
2.737	45.23	98.9297	1.5800	-10.259
2.745	45.32	98.9251	1.5799	-10.180
2.753	45.41	98.9206	1.5799	-10.102
2.762	45.50	98.9161	1.5798	-10.025
2.770	45.60	98.9116	1.5797	-9.948
2.778	45.69	98.9072	1.5796	-9.872
2.787	45.78	98.9027	1.5796	-9.796
2.795	45.87	98.8983	1.5795	-9.720
2.803	45.97	98.8939	1.5794	-9.643
2.812	46.06	98.8895	1.5794	-9.566
2.820	46.15	98.8851	1.5793	-9.490
2.828	46.25	98.8807	1.5792	-9.414
2.837	46.34	98.8763	1.5792	-9.338
2.845	46.43	98.8719	1.5791	-9.262
2.853	46.52	98.8675	1.5790	-9.186
2.862	46.61	98.8632	1.5789	-9.109
2.870	46.71	98.8590	1.5789	-9.033
2.878	46.80	98.8547	1.5788	-8.959
2.887	46.89	98.8505	1.5787	-8.884
2.895	46.98	98.8462	1.5787	-8.809
2.903	47.07	98.8420	1.5786	-8.734
2.912	47.16	98.8378	1.5785	-8.660
2.920	47.26	98.8337	1.5785	-8.585
2.928	47.35	98.8295	1.5784	-8.511
2.937	47.44	98.8254	1.5783	-8.437
2.945	47.53	98.8213	1.5783	-8.364
2.953	47.62	98.8172	1.5782	-8.289
2.962	47.71	98.8131	1.5781	-8.214
2.970	47.80	98.8090	1.5781	-8.140
2.978	47.89	98.8050	1.5780	-8.067
2.987	47.99	98.8010	1.5780	-7.994
2.995	48.08	98.7969	1.5779	-7.921
3.003	48.17	98.7929	1.5778	-7.849
3.012	48.26	98.7889	1.5778	-7.776
3.020	48.35	98.7849	1.5777	-7.702
3.028	48.44	98.7809	1.5776	-7.629
3.037	48.53	98.7770	1.5776	-7.558
3.045	48.62	98.7731	1.5775	-7.487
3.053	48.71	98.7692	1.5774	-7.415
3.062	48.80	98.7654	1.5774	-7.343
3.070	48.89	98.7615	1.5773	-7.272
3.078	48.98	98.7577	1.5773	-7.200
3.087	49.07	98.7540	1.5772	-7.127
3.095	49.16	98.7503	1.5771	-7.056
3.103	49.25	98.7466	1.5771	-6.985
3.112	49.35	98.7429	1.5770	-6.914
3.120	49.43	98.7392	1.5770	-6.843
3.128	49.53	98.7356	1.5769	-6.773
3.137	49.61	98.7320	1.5769	-6.702
3.145	49.70	98.7284	1.5768	-6.632
3.153	49.79	98.7248	1.5767	-6.562
3.162	49.88	98.7213	1.5767	-6.494
3.170	49.97	98.7177	1.5766	-6.425
3.178	50.06	98.7142	1.5766	-6.357
3.187	50.15	98.7106	1.5765	-6.290
3.195	50.24	98.7070	1.5765	-6.223
3.203	50.33	98.7035	1.5764	-6.155
3.212	50.42	98.6999	1.5763	-6.088
3.220	50.51	98.6964	1.5763	-6.021
3.228	50.60	98.6929	1.5762	-5.953
3.237	50.69	98.6894	1.5762	-5.886
3.245	50.78	98.6859	1.5761	-5.819
3.253	50.87	98.6825	1.5761	-5.753
3.262	50.96	98.6791	1.5760	-5.685
3.270	51.04	98.6757	1.5760	-5.618
3.278	51.13	98.6723	1.5759	-5.550
3.287	51.22	98.6690	1.5758	-5.482
3.295	51.31	98.6656	1.5758	-5.415
3.303	51.40	98.6623	1.5757	-5.349
3.312	51.49	98.6590	1.5757	-5.283
3.320	51.58	98.6558	1.5756	-5.217
3.328	51.66	98.6525	1.5756	-5.152
3.337	51.75	98.6493	1.5755	-5.086
3.345	51.84	98.6461	1.5755	-5.021
3.353	51.93	98.6429	1.5754	-4.957
3.362	52.02	98.6397	1.5754	-4.893
3.370	52.11	98.6365	1.5753	-4.829
3.378	52.19	98.6333	1.5753	-4.765
3.387	52.28	98.6301	1.5752	-4.700
3.395	52.37	98.6269	1.5752	-4.635
3.403	52.46	98.6237	1.5751	-4.571
3.412	52.55	98.6206	1.5751	-4.507
3.420	52.63	98.6175	1.5750	-4.443
3.428	52.72	98.6143	1.5750	-4.378
3.437	52.81	98.6112	1.5749	-4.314
3.445	52.90	98.6081	1.5749	-4.251
3.453	52.99	98.6050	1.5748	-4.187
3.462	53.07	98.6020	1.5748	-4.124
3.470	53.16	98.5991	1.5747	-4.062
3.478	53.25	98.5961	1.5747	-3.999
3.487	53.34	98.5932	1.5746	-3.936
3.495	53.42	98.5903	1.5746	-3.874
3.503	53.51	98.5874	1.5745	-3.812
3.512	53.60	98.5846	1.5745	-3.750
3.520	53.69	98.5818	1.5745	-3.688
3.528	53.77	98.5791	1.5744	-3.628
3.537	53.86	98.5764	1.5744	-3.567
3.545	53.95	98.5736	1.5743	-3.506
3.553	54.04	98.5709	1.5743	-3.445
3.562	54.12	98.5682	1.5742	-3.385
3.570	54.21	98.5655	1.5742	-3.326
3.578	54.30	98.5628	1.5741	-3.266
3.587	54.38	98.5600	1.5741	-3.208
3.595	54.47	98.5573	1.5741	-3.149
3.603	54.56	98.5547	1.5740	-3.091
3.612	54.64	98.5520	1.5740	-3.030
3.620	54.73	98.5494	1.5739	-2.972
3.628	54.82	98.5468	1.5739	-2.914
3.637	54.90	98.5442	1.5739	-2.856
3.645	54.99	98.5417	1.5738	-2.798
3.653	55.08	98.5392	1.5738	-2.741
3.662	55.16	98.5366	1.5737	-2.683
3.670	55.25	98.5341	1.5737	-2.626
3.678	55.34	98.5316	1.5737	-2.568
3.687	55.43	98.5290	1.5736	-2.510
3.695	55.51	98.5265	1.5736	-2.453
3.703	55.60	98.5240	1.5735	-2.394
3.712	55.68	98.5214	1.5735	-2.338
3.720	55.77	98.5189	1.5734	-2.280
3.728	55.86	98.5163	1.5734	-2.224
3.737	55.94	98.5138	1.5734	-2.166
3.745	56.03	98.5113	1.5733	-2.109
3.753	56.12	98.5088	1.5733	-2.053
3.762	56.20	98.5064	1.5732	-1.996
3.770	56.29	98.5040	1.5732	-1.941
3.778	56.37	98.5016	1.5732	-1.885
3.787	56.46	98.4993	1.5731	-1.830
3.795	56.55	98.4970	1.5731	-1.776
3.803	56.63	98.4947	1.5731	-1.722
3.812	56.72	98.4925	1.5730	-1.668
3.820	56.80	98.4903	1.5730	-1.614
3.828	56.89	98.4882	1.5730	-1.561
3.837	56.98	98.4860	1.5729	-1.507
3.845	57.06	98.4839	1.5729	-1.453
3.853	57.15	98.4819	1.5729	-1.399
3.862	57.23	98.4798	1.5728	-1.346
3.870	57.32	98.4777	1.5728	-1.293
3.878	57.41	98.4757	1.5728	-1.239
3.887	57.49	98.4737	1.5727	-1.186
3.895	57.58	98.4718	1.5727	-1.133
3.903	57.66	98.4699	1.5727	-1.080
3.912	57.75	98.4680	1.5726	-1.028
3.920	57.84	98.4661	1.5726	-0.976
3.928	57.92	98.4641	1.5726	-0.924
3.937	58.01	98.4622	1.5725	-0.872
3.945	58.09	98.4603	1.5725	-0.821
3.953	58.18	98.4584	1.5725	-0.769
3.962	58.26	98.4565	1.5725	-0.717
3.970	58.35	98.4546	1.5724	-0.665
3.978	58.44	98.4527	1.5724	-0.613
3.987	58.52	98.4508	1.5724	-0.562
3.995	58.61	98.4489	1.5723	-0.510
4.003	58.69	98.4471	1.5723	-0.458
4.012	58.78	98.4453	1.5723	-0.408
4.020	58.86	98.4435	1.5722	-0.358
4.028	58.95	98.4417	1.5722	-0.307
4.037	59.03	98.4400	1.5722	-0.257
4.045	59.12	98.4382	1.5722	-0.207
4.053	59.20	98.4365	1.5721	-0.157
4.062	59.29	98.4347	1.5721	-0.108
4.070	59.37	98.4329	1.5721	-0.059
4.078	59.46	98.4312	1.5720	-0.010
4.087	59.54	98.4294	1.5720	0.039
4.095	59.63	98.4277	1.5720	0.088
4.103	59.72	98.4260	1.5720	0.138
4.112	59.80	98.4243	1.5719	0.187
4.120	59.89	98.4226	1.5719	0.235
4.128	59.97	98.4209	1.5719	0.283
4.137	60.06	98.4193	1.5719	0.331
4.145	60.14	98.4176	1.5718	0.379
4.153	60.23	98.4160	1.5718	0.427
4.162	60.31	98.4144	1.5718	0.475
4.170	60.40	98.4129	1.5718	0.522
4.178	60.48	98.4113	1.5717	0.569
4.187	60.57	98.4098	1.5717	0.615
4.195	60.65	98.4083	1.5717	0.661
4.203	60.74	98.4067	1.5717	0.707
4.212	60.82	98.4052	1.5716	0.753
4.220	60.91	98.4038	1.5716	0.799
4.228	60.99	98.4023	1.5716	0.846
4.237	61.08	98.4009	1.5716	0.892
4.245	61.16	98.3996	1.5715	0.938
4.253	61.25	98.3982	1.5715	0.985
4.262	61.33	98.3968	1.5715	1.030
4.270	61.42	98.3955	1.5715	1.076
4.278	61.50	98.3941	1.5715	1.122
4.287	61.59	98.3928	1.5714	1.167
4.295	61.67	98.3914	1.5714	1.212
4.303	61.76	98.3901	1.5714	1.257
4.312	61.84	98.3887	1.5714	1.301
4.320	61.93	98.3873	1.5713	1.345
4.328	62.01	98.3860	1.5713	1.389
4.337	62.10	98.3847	1.5713	1.432
4.345	62.18	98.3833	1.5713	1.475
4.353	62.27	98.3820	1.5713	1.518
4.362	62.35	98.3807	1.5712	1.561
4.370	62.44	98.3795	1.5712	1.604
4.378	62.52	98.3782	1.5712	1.647
4.387	62.61	98.3770	1.5712	1.689
4.395	62.69	98.3758	1.5712	1.731
4.403	62.78	98.3747	1.5711	1.773
4.412	62.86	98.3735	1.5711	1.815
4.420	62.95	98.3723	1.5711	1.858
4.428	63.03	98.3712	1.5711	1.902
4.437	63.12	98.3700	1.5711	1.945
4.445	63.20	98.3689	1.5711	1.987
4.453	63.29	98.3678	1.5710	2.029
4.462	63.37	98.3667	1.5710	2.071
4.470	63.46	98.3656	1.5710	2.113
4.478	63.54	98.3645	1.5710	2.155
4.487	63.63	98.3634	1.5710	2.196
4.495	63.71	98.3623	1.5709	2.237
4.503	63.80	98.3612	1.5709	2.278
4.512	63.88	98.3601	1.5709	2.318
4.520	63.97	98.3591	1.5709	2.357
4.528	64.05	98.3580	1.5709	2.397
4.537	64.14	98.3569	1.5709	2.437
4.545	64.22	98.3558	1.5708	2.476
4.553	64.31	98.3547	1.5708	2.516
4.562	64.39	98.3536	1.5708	2.556
4.570	64.48	98.3526	1.5708	2.596
4.578	64.56	98.3516	1.5708	2.636
4.587	64.64	98.3506	1.5708	2.676
4.595	64.73	98.3496	1.5707	2.716
4.603	64.81	98.3487	1.5707	2.757
4.612	64.90	98.3477	1.5707	2.798
4.620	64.98	98.3469	1.5707	2.837
4.628	65.07	98.3460	1.5707	2.877
4.637	65.15	98.3452	1.5707	2.917
4.645	65.24	98.3443	1.5707	2.955
4.653	65.32	98.3434	1.5706	2.993
4.662	65.41	98.3426	1.5706	3.030
4.670	65.50	98.3418	1.5706	3.068
4.678	65.58	98.3410	1.5706	3.105
4.687	65.67	98.3402	1.5706	3.142
4.695	65.75	98.3394	1.5706	3.180
4.703	65.84	98.3386	1.5706	3.218
4.712	65.92	98.3378	1.5706	3.255
4.720	66.01	98.3371	1.5705	3.291
4.728	66.09	98.3363	1.5705	3.328
4.737	66.17	98.3355	1.5705	3.364
4.745	66.26	98.3347	1.5705	3.401
4.753	66.35	98.3340	1.5705	3.437
4.762	66.43	98.3332	1.5705	3.474
4.770	66.51	98.3324	1.5705	3.510
4.778	66.60	98.3316	1.5705	3.546
4.787	66.68	98.3308	1.5704	3.581
4.795	66.77	98.3299	1.5704	3.617
4.803	66.85	98.3291	1.5704	3.654
4.812	66.94	98.3282	1.5704	3.692
4.820	67.03	98.3274	1.5704	3.728
4.828	67.11	98.3266	1.5704	3.765
4.837	67.20	98.3257	1.5704	3.800
4.845	67.28	98.3249	1.5704	3.836
4.853	67.37	98.3241	1.5703	3.871
4.862	67.45	98.3233	1.5703	3.906
4.870	67.54	98.3225	1.5703	3.943
4.878	67.62	98.3217	1.5703	3.977
4.887	67.71	98.3209	1.5703	4.012
4.895	67.79	98.3201	1.5703	4.047
4.903	67.88	98.3193	1.5703	4.082
4.912	67.96	98.3185	1.5702	4.116
4.920	68.05	98.3177	1.5702	4.150
4.928	68.13	98.3169	1.5702	4.184
4.937	68.22	98.3161	1.5702	4.218
4.945	68.30	98.3153	1.5702	4.252
4.953	68.39	98.3146	1.5702	4.286
4.962	68.47	98.3139	1.5702	4.321
4.970	68.56	98.3132	1.5702	4.354
4.978	68.64	98.3126	1.5702	4.387
4.987	68.73	98.3120	1.5701	4.420
4.995	68.81	98.3113	1.5701	4.454
5.003	68.90	98.3107	1.5701	4.487
5.012	68.98	98.3102	1.5701	4.521
5.020	69.07	98.3096	1.5701	4.554
5.028	69.15	98.3091	1.5701	4.586
5.037	69.24	98.3085	1.5701	4.618
5.045	69.32	98.3080	1.5701	4.650
5.053	69.41	98.3074	1.5701	4.682
5.062	69.49	98.3069	1.5701	4.713
5.070	69.58	98.3063	1.5701	4.746
5.078	69.66	98.3058	1.5700	4.777
5.087	69.75	98.3053	1.5700	4.810
5.095	69.83	98.3048	1.5700	4.842
5.103	69.92	98.3043	1.5700	4.874
5.112	70.00	98.3038	1.5700	4.906
5.120	70.09	98.3033	1.5700	4.939
5.128	70.18	98.3028	1.5700	4.971
5.137	70.26	98.3024	1.5700	5.004
5.145	70.35	98.3019	1.5700	5.036
5.153	70.43	98.3015	1.5700	5.068
5.162	70.52	98.3010	1.5700	5.100
5.170	70.60	98.3005	1.5700	5.130
5.178	70.69	98.3001	1.5700	5.161
5.187	70.77	98.2996	1.5699	5.191
5.195	70.86	98.2992	1.5699	5.222
5.203	70.94	98.2988	1.5699	5.252
5.212	71.03	98.2984	1.5699	5.282
5.220	71.11	98.2980	1.5699	5.311
5.228	71.20	98.2976	1.5699	5.340
5.237	71.28	98.2973	1.5699	5.369
5.245	71.37	98.2969	1.5699	5.397
5.253	71.46	98.2966	1.5699	5.426
5.262	71.54	98.2962	1.5699	5.454
5.270	71.63	98.2958	1.5699	5.484
5.278	71.71	98.2955	1.5699	5.513
5.287	71.80	98.2951	1.5699	5.542
5.295	71.88	98.2948	1.5699	5.570
5.303	71.97	98.2945	1.5699	5.598
5.312	72.05	98.2941	1.5699	5.627
5.320	72.14	98.2937	1.5699	5.655
5.328	72.22	98.2933	1.5698	5.683
5.337	72.31	98.2929	1.5698	5.712
5.345	72.39	98.2926	1.5698	5.741
5.353	72.48	98.2922	1.5698	5.768
5.362	72.57	98.2919	1.5698	5.795
5.370	72.65	98.2915	1.5698	5.822
5.378	72.74	98.2912	1.5698	5.849
5.387	72.82	98.2909	1.5698	5.875
5.395	72.91	98.2906	1.5698	5.902
5.403	72.99	98.2903	1.5698	5.930
5.412	73.08	98.2900	1.5698	5.958
5.420	73.16	98.2897	1.5698	5.986
5.428	73.25	98.2895	1.5698	6.013
5.437	73.34	98.2892	1.5698	6.041
5.445	73.42	98.2889	1.5698	6.070
5.453	73.51	98.2886	1.5698	6.097
5.462	73.59	98.2883	1.5698	6.124
5.470	73.68	98.2881	1.5698	6.151
5.478	73.76	98.2878	1.5698	6.178
5.487	73.85	98.2875	1.5698	6.205
5.495	73.93	98.2872	1.5697	6.232
5.503	74.02	98.2869	1.5697	6.260
5.512	74.11	98.2866	1.5697	6.287
5.520	74.19	98.2863	1.5697	6.313
5.528	74.28	98.2860	1.5697	6.339
5.537	74.36	98.2857	1.5697	6.366
5.545	74.45	98.2854	1.5697	6.394
5.553	74.53	98.2851	1.5697	6.421
5.562	74.62	98.2847	1.5697	6.447
5.570	74.71	98.2844	1.5697	6.473
5.578	74.79	98.2841	1.5697	6.498
5.587	74.88	98.2838	1.5697	6.523
5.595	74.96	98.2835	1.5697	6.547
5.603	75.05	98.2833	1.5697	6.572
5.612	75.13	98.2831	1.5697	6.598
5.620	75.22	98.2828	1.5697	6.623
5.628	75.31	98.2826	1.5697	6.647
5.637	75.39	98.2824	1.5697	6.672
5.645	75.48	98.2822	1.5697	6.697
5.653	75.56	98.2819	1.5697	6.722
5.662	75.65	98.2817	1.5697	6.747
5.670	75.73	98.2815	1.5697	6.771
5.678	75.82	98.2812	1.5697	6.795
5.687	75.91	98.2810	1.5696	6.820
5.695	75.99	98.2807	1.5696	6.843
5.703	76.08	98.2805	1.5696	6.867
5.712	76.16	98.2803	1.5696	6.892
5.720	76.25	98.2800	1.5696	6.916
5.728	76.33	98.2798	1.5696	6.941
5.737	76.42	98.2796	1.5696	6.964
5.745	76.50	98.2794	1.5696	6.989
5.753	76.59	98.2793	1.5696	7.013
5.762	76.68	98.2791	1.5696	7.037
5.770	76.76	98.2790	1.5696	7.060
5.778	76.85	98.2788	1.5696	7.083
5.787	76.93	98.2787	1.5696	7.106
5.795	77.02	98.2785	1.5696	7.128
5.803	77.11	98.2783	1.5696	7.150
5.812	77.19	98.2782	1.5696	7.172
5.820	77.28	98.2781	1.5696	7.194
5.828	77.36	98.2780	1.5696	7.215
5.837	77.45	98.2778	1.5696	7.236
5.845	77.54	98.2777	1.5696	7.257
5.853	77.62	98.2775	1.5696	7.280
5.862	77.71	98.2773	1.5696	7.304
5.870	77.79	98.2771	1.5696	7.326
5.878	77.88	98.2769	1.5696	7.347
5.887	77.97	98.2767	1.5696	7.369
5.895	78.05	98.2764	1.5696	7.390
5.903	78.14	98.2762	1.5696	7.411
5.912	78.22	98.2760	1.5696	7.434
5.920	78.31	98.2759	1.5696	7.456
5.928	78.39	98.2757	1.5696	7.478
5.937	78.48	98.2754	1.5696	7.499
5.945	78.57	98.2752	1.5696	7.519
5.953	78.65	98.2751	1.5696	7.540
5.962	78.74	98.2749	1.5696	7.562
5.970	78.82	98.2748	1.5695	7.583
5.978	78.91	98.2746	1.5695	7.605
5.987	79.00	98.2745	1.5695	7.626
5.995	79.08	98.2743	1.5695	7.646
6.003	79.17	98.2741	1.5695	7.665
6.012	79.25	98.2740	1.5695	7.685
6.020	79.34	98.2739	1.5695	7.705
6.028	79.43	98.2738	1.5695	7.725
6.037	79.51	98.2736	1.5695	7.745
6.045	79.60	98.2735	1.5695	7.765
6.053	79.68	98.2733	1.5695	7.785
6.062	79.77	98.2732	1.5695	7.804
6.070	79.86	98.2730	1.5695	7.823
6.078	79.94	98.2729	1.5695	7.842
6.087	80.03	98.2727	1.5695	7.862
6.095	80.11	98.2726	1.5695	7.882
6.103	80.20	98.2724	1.5695	7.901
6.112	80.29	98.2723	1.5695	7.921
6.120	80.37	98.2722	1.5695	7.940
6.128	80.46	98.2721	1.5695	7.959
6.137	80.54	98.2720	1.5695	7.978
6.145	80.63	98.2719	1.5695	7.998
6.153	80.72	98.2718	1.5695	8.018
6.162	80.80	98.2717	1.5695	8.038
6.170	80.89	98.2717	1.5695	8.058
6.178	80.97	98.2716	1.5695	8.078
6.187	81.06	98.2715	1.5695	8.097
6.195	81.15	98.2713	1.5695	8.115
6.203	81.23	98.2712	1.5695	8.135
6.212	81.32	98.2711	1.5695	8.154
6.220	81.41	98.2709	1.5695	8.172
6.228	81.49	98.2708	1.5695	8.190
6.237	81.58	98.2706	1.5695	8.209
6.245	81.66	98.2705	1.5695	8.227
6.253	81.75	98.2703	1.5695	8.243
6.262	81.84	98.2702	1.5695	8.260
6.270	81.92	98.2701	1.5695	8.278
6.278	82.01	98.2700	1.5695	8.297
6.287	82.09	98.2699	1.5695	8.316
6.295	82.18	98.2698	1.5695	8.335
6.303	82.27	98.2697	1.5695	8.355
6.312	82.35	98.2696	1.5695	8.373
6.320	82.44	98.2696	1.5695	8.391
6.328	82.52	98.2695	1.5695	8.410
6.337	82.61	98.2694	1.5695	8.429
6.345	82.70	98.2693	1.5695	8.448
6.353	82.78	98.2692	1.5695	8.466
6.362	82.87	98.2691	1.5695	8.483
6.370	82.95	98.2691	1.5695	8.501
6.378	83.04	98.2690	1.5695	8.518
6.387	83.13	98.2690	1.5695	8.534
6.395	83.21	98.2690	1.5695	8.551
6.403	83.30	98.2690	1.5695	8.567
6.412	83.38	98.2689	1.5695	8.584
6.420	83.47	98.2689	1.5695	8.599
6.428	83.56	98.2689	1.5695	8.614
6.437	83.64	98.2689	1.5695	8.630
6.445	83.73	98.2689	1.5695	8.646
6.453	83.81	98.2689	1.5695	8.662
6.462	83.90	98.2688	1.5695	8.678
6.470	83.99	98.2688	1.5695	8.693
6.478	84.07	98.2688	1.5695	8.709
6.487	84.16	98.2687	1.5695	8.725
6.495	84.25	98.2687	1.5695	8.741
6.503	84.33	98.2687	1.5695	8.757
6.512	84.42	98.2687	1.5695	8.774
6.520	84.50	98.2687	1.5695	8.790
6.528	84.59	98.2687	1.5695	8.805
6.537	84.68	98.2687	1.5695	8.821
6.545	84.76	98.2687	1.5695	8.837
6.553	84.85	98.2687	1.5695	8.852
6.562	84.93	98.2687	1.5695	8.867
6.570	85.02	98.2688	1.5695	8.883
6.578	85.11	98.2688	1.5695	8.899
6.587	85.19	98.2688	1.5695	8.915
6.595	85.28	98.2687	1.5695	8.930
6.603	85.36	98.2687	1.5695	8.945
6.612	85.45	98.2686	1.5695	8.960
6.620	85.54	98.2685	1.5694	8.975
6.628	85.62	98.2684	1.5694	8.989
6.637	85.71	98.2683	1.5694	9.003
6.645	85.79	98.2682	1.5694	9.018
6.653	85.88	98.2680	1.5694	9.033
6.662	85.96	98.2679	1.5694	9.046
6.670	86.05	98.2678	1.5694	9.059
6.678	86.14	98.2677	1.5694	9.073
6.687	86.22	98.2676	1.5694	9.086
6.695	86.31	98.2675	1.5694	9.099
6.703	86.39	98.2674	1.5694	9.112
6.712	86.48	98.2673	1.5694	9.126
6.720	86.57	98.2672	1.5694	9.139
6.728	86.65	98.2672	1.5694	9.152
6.737	86.74	98.2671	1.5694	9.165
6.745	86.82	98.2670	1.5694	9.179
6.753	86.91	98.2669	1.5694	9.193
6.762	87.00	98.2668	1.5694	9.207
6.770	87.08	98.2667	1.5694	9.220
6.778	87.17	98.2666	1.5694	9.233
6.787	87.26	98.2665	1.5694	9.246
6.795	87.34	98.2664	1.5694	9.259
6.803	87.43	98.2663	1.5694	9.273
6.812	87.51	98.2663	1.5694	9.287
6.820	87.60	98.2662	1.5694	9.300
6.828	87.68	98.2662	1.5694	9.315
6.837	87.77	98.2661	1.5694	9.328
6.845	87.86	98.2661	1.5694	9.341
6.853	87.94	98.2660	1.5694	9.354
6.862	88.03	98.2660	1.5694	9.367
6.870	88.11	98.2659	1.5694	9.380
6.878	88.20	98.2658	1.5694	9.393
6.887	88.29	98.2657	1.5694	9.405
6.895	88.37	98.2656	1.5694	9.418
6.903	88.46	98.2655	1.5694	9.430
6.912	88.55	98.2655	1.5694	9.443
6.920	88.63	98.2654	1.5694	9.455
6.928	88.72	98.2654	1.5694	9.468
6.937	88.80	98.2653	1.5694	9.480
6.945	88.89	98.2653	1.5694	9.492
6.953	88.98	98.2653	1.5694	9.504
6.962	89.06	98.2654	1.5694	9.516
6.970	89.15	98.2654	1.5694	9.528
6.978	89.23	98.2655	1.5694	9.539
6.987	89.32	98.2655	1.5694	9.551
6.995	89.40	98.2655	1.5694	9.562
7.003	89.49	98.2656	1.5694	9.574
7.012	89.58	98.2656	1.5694	9.585
7.020	89.66	98.2657	1.5694	9.597
7.028	89.75	98.2657	1.5694	9.608
7.037	89.83	98.2657	1.5694	9.619
7.045	89.92	98.2657	1.5694	9.630
7.053	90.01	98.2657	1.5694	9.641
7.062	90.09	98.2657	1.5694	9.652
7.070	90.18	98.2657	1.5694	9.663
7.078	90.26	98.2657	1.5694	9.674
7.087	90.35	98.2656	1.5694	9.684
7.095	90.44	98.2655	1.5694	9.695
7.103	90.52	98.2655	1.5694	9.706
7.112	90.61	98.2654	1.5694	9.718
7.120	90.69	98.2654	1.5694	9.729
7.128	90.78	98.2654	1.5694	9.740
7.137	90.87	98.2654	1.5694	9.751
7.145	90.95	98.2654	1.5694	9.761
7.153	91.04	98.2654	1.5694	9.771
7.162	91.12	98.2655	1.5694	9.781
7.170	91.21	98.2656	1.5694	9.790
7.178	91.30	98.2657	1.5694	9.800
7.187	91.38	98.2659	1.5694	9.810
7.195	91.47	98.2660	1.5694	9.819
7.203	91.55	98.2661	1.5694	9.829
7.212	91.64	98.2662	1.5694	9.839
7.220	91.73	98.2663	1.5694	9.850
7.228	91.81	98.2663	1.5694	9.860
7.237	91.90	98.2664	1.5694	9.871
7.245	91.98	98.2664	1.5694	9.881
7.253	92.07	98.2664	1.5694	9.891
7.262	92.16	98.2664	1.5694	9.901
7.270	92.24	98.2664	1.5694	9.911
7.278	92.33	98.2664	1.5694	9.921
7.287	92.41	98.2665	1.5694	9.931
7.295	92.50	98.2665	1.5694	9.940
7.303	92.59	98.2666	1.5694	9.949
7.312	92.67	98.2666	1.5694	9.958
7.320	92.76	98.2666	1.5694	9.967
7.328	92.84	98.2666	1.5694	9.975
7.337	92.93	98.2667	1.5694	9.984
7.345	93.01	98.2667	1.5694	9.992
7.353	93.10	98.2667	1.5694	10.000
7.362	93.19	98.2667	1.5694	10.008
7.370	93.27	98.2667	1.5694	10.017
7.378	93.36	98.2667	1.5694	10.026
7.387	93.44	98.2667	1.5694	10.035
7.395	93.53	98.2667	1.5694	10.043
7.403	93.61	98.2667	1.5694	10.050
7.412	93.70	98.2667	1.5694	10.058
7.420	93.78	98.2667	1.5694	10.065
7.428	93.87	98.2667	1.5694	10.073
7.437	93.96	98.2667	1.5694	10.081
7.445	94.04	98.2667	1.5694	10.089
7.453	94.13	98.2668	1.5694	10.096
7.462	94.21	98.2668	1.5694	10.103
7.470	94.30	98.2668	1.5694	10.110
7.478	94.39	98.2668	1.5694	10.118
7.487	94.47	98.2669	1.5694	10.126
7.495	94.56	98.2669	1.5694	10.134
7.503	94.64	98.2669	1.5694	10.142
7.512	94.73	98.2670	1.5694	10.150
7.520	94.81	98.2670	1.5694	10.157
7.528	94.90	98.2670	1.5694	10.165
7.537	94.99	98.2671	1.5694	10.173
7.545	95.07	98.2671	1.5694	10.180
7.553	95.16	98.2671	1.5694	10.187
7.562	95.24	98.2672	1.5694	10.193
7.570	95.33	98.2672	1.5694	10.200
7.578	95.41	98.2673	1.5694	10.207
7.587	95.50	98.2673	1.5694	10.214
7.595	95.59	98.2674	1.5694	10.222
7.603	95.67	98.2675	1.5694	10.229
7.612	95.76	98.2675	1.5694	10.235
7.620	95.84	98.2676	1.5694	10.242
7.628	95.93	98.2676	1.5694	10.249
7.637	96.01	98.2677	1.5694	10.256
7.645	96.10	98.2677	1.5694	10.263
7.653	96.18	98.2677	1.5694	10.270
7.662	96.27	98.2676	1.5694	10.277
7.670	96.36	98.2676	1.5694	10.284
7.678	96.44	98.2675	1.5694	10.290
7.687	96.53	98.2674	1.5694	10.296
7.695	96.61	98.2674	1.5694	10.303
7.703	96.70	98.2673	1.5694	10.310
7.712	96.78	98.2673	1.5694	10.316
7.720	96.87	98.2673	1.5694	10.322
7.728	96.96	98.2674	1.5694	10.329
7.737	97.04	98.2674	1.5694	10.336
7.745	97.13	98.2674	1.5694	10.342
7.753	97.21	98.2674	1.5694	10.348
7.762	97.30	98.2675	1.5694	10.354
7.770	97.38	98.2675	1.5694	10.361
7.778	97.47	98.2676	1.5694	10.367
7.787	97.56	98.2676	1.5694	10.374
7.795	97.64	98.2676	1.5694	10.381
7.803	97.73	98.2676	1.5694	10.388
7.812	97.81	98.2676	1.5694	10.394
7.820	97.90	98.2676	1.5694	10.401
7.828	97.98	98.2677	1.5694	10.408
7.837	98.07	98.2678	1.5694	10.414
7.845	98.16	98.2678	1.5694	10.419
7.853	98.24	98.2679	1.5694	10.425
7.862	98.33	98.2680	1.5694	10.430
7.870	98.41	98.2681	1.5694	10.435
7.878	98.50	98.2683	1.5694	10.439
7.887	98.59	98.2685	1.5694	10.443
7.895	98.67	98.2686	1.5695	10.448
7.903	98.76	98.2688	1.5695	10.452
7.912	98.84	98.2689	1.5695	10.457
7.920	98.93	98.2690	1.5695	10.463
7.928	99.01	98.2690	1.5695	10.469
7.937	99.10	98.2691	1.5695	10.474
7.945	99.18	98.2690	1.5695	10.480
7.953	99.27	98.2690	1.5695	10.486
7.962	99.35	98.2689	1.5695	10.491
7.970	99.44	98.2689	1.5695	10.497
7.978	99.53	98.2688	1.5695	10.502
7.987	99.61	98.2688	1.5695	10.508
7.995	99.70	98.2688	1.5695	10.512
8.003	99.78	98.2688	1.5695	10.517
8.012	99.87	98.2688	1.5695	10.521
8.020	99.96	98.2688	1.5695	10.525
8.028	100.04	98.2688	1.5695	10.528
8.037	100.13	98.2689	1.5695	10.532
8.045	100.21	98.2689	1.5695	10.536
8.053	100.30	98.2690	1.5695	10.540
8.062	100.38	98.2691	1.5695	10.544
8.070	100.47	98.2692	1.5695	10.548
8.078	100.55	98.2692	1.5695	10.553
8.087	100.64	98.2693	1.5695	10.558
8.095	100.73	98.2694	1.5695	10.562
8.103	100.81	98.2695	1.5695	10.567
8.112	100.90	98.2696	1.5695	10.571
8.120	100.98	98.2697	1.5695	10.576
8.128	101.07	98.2698	1.5695	10.580
8.137	101.15	98.2700	1.5695	10.584
8.145	101.24	98.2701	1.5695	10.588
8.153	101.32	98.2701	1.5695	10.592
8.162	101.41	98.2702	1.5695	10.595
8.170	101.49	98.2703	1.5695	10.598
8.178	101.58	98.2703	1.5695	10.601
8.187	101.67	98.2704	1.5695	10.605
8.195	101.75	98.2705	1.5695	10.608
8.203	101.84	98.2706	1.5695	10.611
8.212	101.92	98.2706	1.5695	10.614
8.220	102.01	98.2707	1.5695	10.618
8.228	102.09	98.2708	1.5695	10.622
8.237	102.18	98.2708	1.5695	10.625
8.245	102.27	98.2708	1.5695	10.628
8.253	102.35	98.2709	1.5695	10.631
8.262	102.44	98.2709	1.5695	10.634
8.270	102.52	98.2709	1.5695	10.637
8.278	102.61	98.2709	1.5695	10.640
8.287	102.69	98.2709	1.5695	10.643
8.295	102.78	98.2710	1.5695	10.645
8.303	102.86	98.2711	1.5695	10.647
8.312	102.95	98.2711	1.5695	10.648
8.320	103.04	98.2712	1.5695	10.651
8.328	103.12	98.2714	1.5695	10.653
8.337	103.21	98.2715	1.5695	10.656
8.345	103.29	98.2716	1.5695	10.659
8.353	103.38	98.2717	1.5695	10.663
8.362	103.46	98.2718	1.5695	10.666
8.370	103.55	98.2719	1.5695	10.670
8.378	103.63	98.2720	1.5695	10.674
8.387	103.72	98.2720	1.5695	10.678
8.395	103.81	98.2720	1.5695	10.683
8.403	103.89	98.2720	1.5695	10.687
8.412	103.98	98.2720	1.5695	10.690
8.420	104.06	98.2721	1.5695	10.694
8.428	104.15	98.2721	1.5695	10.696
8.437	104.23	98.2722	1.5695	10.699
8.445	104.32	98.2722	1.5695	10.701
8.453	104.41	98.2723	1.5695	10.703
8.462	104.49	98.2723	1.5695	10.704
8.470	104.58	98.2724	1.5695	10.706
8.478	104.66	98.2725	1.5695	10.707
8.487	104.75	98.2726	1.5695	10.709
8.495	104.83	98.2727	1.5695	10.711
8.503	104.92	98.2727	1.5695	10.713
8.512	105.00	98.2728	1.5695	10.715
8.520	105.09	98.2729	1.5695	10.717
8.528	105.18	98.2731	1.5695	10.719
8.537	105.26	98.2732	1.5695	10.720
8.545	105.35	98.2734	1.5695	10.722
8.553	105.43	98.2735	1.5695	10.723
8.562	105.52	98.2737	1.5695	10.724
8.570	105.60	98.2739	1.5695	10.725
8.578	105.69	98.2740	1.5695	10.725
8.587	105.77	98.2742	1.5695	10.725
8.595	105.86	98.2744	1.5695	10.726
8.603	105.95	98.2746	1.5695	10.727
8.612	106.03	98.2747	1.5695	10.728
8.620	106.12	98.2748	1.5696	10.729
8.628	106.20	98.2750	1.5696	10.730
8.637	106.29	98.2751	1.5696	10.732
8.645	106.37	98.2752	1.5696	10.733
8.653	106.46	98.2754	1.5696	10.735
8.662	106.54	98.2755	1.5696	10.737
8.670	106.63	98.2756	1.5696	10.738
8.678	106.72	98.2757	1.5696	10.740

[step]
Isothermal 30.0 min
Time	Temperature	Weight	Weight	Heat Flow
min	°C	%	mg	mW
8.687	106.80	98.2758	1.5696	10.741
8.712	107.06	98.2760	1.5696	10.744
8.737	107.31	98.2760	1.5696	10.748
8.762	107.57	98.2762	1.5696	10.752
8.787	107.82	98.2764	1.5696	10.759
8.812	108.08	98.2767	1.5696	10.770
8.837	108.33	98.2770	1.5696	10.784
8.862	108.58	98.2773	1.5696	10.800
8.887	108.82	98.2776	1.5696	10.819
8.912	109.06	98.2778	1.5696	10.842
8.937	109.30	98.2778	1.5696	10.873
8.962	109.53	98.2778	1.5696	10.906
8.987	109.76	98.2778	1.5696	10.945
9.012	109.98	98.2776	1.5696	10.982
9.037	110.20	98.2774	1.5696	11.027
9.062	110.42	98.2771	1.5696	11.075
9.087	110.62	98.2768	1.5696	11.127
9.112	110.83	98.2765	1.5696	11.180
9.137	111.02	98.2760	1.5696	11.232
9.162	111.21	98.2754	1.5696	11.289
9.187	111.39	98.2747	1.5695	11.348
9.212	111.57	98.2739	1.5695	11.411
9.237	111.74	98.2732	1.5695	11.476
9.262	111.90	98.2725	1.5695	11.541
9.287	112.06	98.2719	1.5695	11.608
9.312	112.21	98.2711	1.5695	11.676
9.337	112.35	98.2701	1.5695	11.747
9.362	112.49	98.2691	1.5695	11.819
9.387	112.62	98.2681	1.5694	11.891
9.412	112.74	98.2672	1.5694	11.965
9.437	112.86	98.2662	1.5694	12.040
9.462	112.97	98.2653	1.5694	12.113
9.487	113.07	98.2645	1.5694	12.188
9.512	113.16	98.2636	1.5694	12.262
9.537	113.25	98.2626	1.5694	12.338
9.562	113.32	98.2614	1.5693	12.414
9.587	113.40	98.2600	1.5693	12.490
9.612	113.46	98.2586	1.5693	12.565
9.637	113.52	98.2571	1.5693	12.638
9.662	113.57	98.2556	1.5692	12.708
9.687	113.62	98.2540	1.5692	12.777
9.712	113.66	98.2523	1.5692	12.841
9.737	113.69	98.2505	1.5692	12.903
9.762	113.72	98.2488	1.5691	12.963
9.787	113.74	98.2471	1.5691	13.021
9.812	113.76	98.2455	1.5691	13.079
9.837	113.78	98.2440	1.5691	13.131
9.862	113.78	98.2424	1.5690	13.180
9.887	113.79	98.2408	1.5690	13.226
9.912	113.79	98.2391	1.5690	13.266
9.937	113.78	98.2374	1.5690	13.305
9.962	113.77	98.2357	1.5689	13.341
9.987	113.76	98.2342	1.5689	13.376
10.012	113.74	98.2327	1.5689	13.407
10.037	113.72	98.2313	1.5689	13.438
10.062	113.70	98.2295	1.5688	13.466
10.087	113.67	98.2274	1.5688	13.490
10.112	113.64	98.2253	1.5688	13.509
10.137	113.61	98.2233	1.5687	13.523
10.162	113.58	98.2216	1.5687	13.533
10.187	113.54	98.2199	1.5687	13.539
10.212	113.51	98.2184	1.5686	13.543
10.237	113.47	98.2168	1.5686	13.547
10.262	113.43	98.2152	1.5686	13.548
10.287	113.40	98.2135	1.5686	13.549
10.312	113.36	98.2121	1.5685	13.548
10.337	113.32	98.2110	1.5685	13.545
10.362	113.28	98.2101	1.5685	13.541
10.387	113.24	98.2092	1.5685	13.533
10.412	113.19	98.2084	1.5685	13.518
10.437	113.15	98.2075	1.5685	13.500
10.462	113.11	98.2067	1.5685	13.477
10.487	113.07	98.2060	1.5685	13.454
10.512	113.03	98.2053	1.5684	13.429
10.537	112.99	98.2047	1.5684	13.400
10.562	112.94	98.2043	1.5684	13.370
10.587	112.90	98.2039	1.5684	13.339
10.612	112.87	98.2034	1.5684	13.308
10.637	112.83	98.2030	1.5684	13.280
10.662	112.79	98.2024	1.5684	13.254
10.687	112.75	98.2019	1.5684	13.228
10.712	112.71	98.2014	1.5684	13.199
10.737	112.67	98.2008	1.5684	13.169
10.762	112.64	98.2005	1.5684	13.136
10.787	112.60	98.2003	1.5684	13.105
10.812	112.57	98.2003	1.5684	13.073
10.837	112.53	98.2003	1.5684	13.045
10.862	112.50	98.2003	1.5684	13.014
10.887	112.47	98.2003	1.5684	12.982
10.912	112.44	98.2004	1.5684	12.948
10.937	112.41	98.2003	1.5684	12.916
10.962	112.38	98.2004	1.5684	12.887
10.987	112.36	98.2004	1.5684	12.859
11.012	112.33	98.2006	1.5684	12.828
11.037	112.31	98.2007	1.5684	12.796
11.062	112.28	98.2008	1.5684	12.766
11.087	112.26	98.2006	1.5684	12.738
11.112	112.24	98.2003	1.5684	12.711
11.137	112.22	98.1999	1.5684	12.680
11.162	112.20	98.1997	1.5684	12.649
11.187	112.19	98.1995	1.5683	12.616
11.212	112.17	98.1995	1.5683	12.586
11.237	112.16	98.1997	1.5684	12.558
11.262	112.14	98.1999	1.5684	12.532
11.287	112.13	98.2001	1.5684	12.508
11.312	112.12	98.2003	1.5684	12.485
11.337	112.11	98.2006	1.5684	12.460
11.362	112.10	98.2010	1.5684	12.438
11.387	112.10	98.2014	1.5684	12.412
11.412	112.09	98.2016	1.5684	12.388
11.437	112.09	98.2018	1.5684	12.365
11.462	112.08	98.2022	1.5684	12.342
11.487	112.08	98.2024	1.5684	12.319
[...]
55.853	931.60	11.4700	0.1832	-61.192
55.862	931.76	11.4701	0.1832	-60.067
55.870	931.91	11.4701	0.1832	-58.942
55.878	932.05	11.4702	0.1832	-57.817
55.887	932.19	11.4702	0.1832	-56.696
55.895	932.33	11.4702	0.1832	-55.576
55.903	932.46	11.4702	0.1832	-54.458
55.912	932.59	11.4702	0.1832	-53.344
55.920	932.71	11.4703	0.1832	-52.231
55.928	932.83	11.4702	0.1832	-51.121
55.937	932.94	11.4702	0.1832	-50.015
55.945	933.05	11.4702	0.1832	-48.914
55.953	933.16	11.4702	0.1832	-47.819
55.962	933.26	11.4702	0.1832	-46.728
55.970	933.36	11.4703	0.1832	-45.643
55.978	933.45	11.4704	0.1832	-44.566
55.987	933.55	11.4705	0.1832	-43.495
55.995	933.63	11.4706	0.1832	-42.430
56.003	933.72	11.4707	0.1832	-41.373
56.012	933.80	11.4708	0.1832	-40.325
56.020	933.88	11.4709	0.1832	-39.284
56.028	933.96	11.4710	0.1832	-38.252
56.037	934.03	11.4710	0.1832	-37.228
56.045	934.10	11.4711	0.1832	-36.212
56.053	934.17	11.4711	0.1832	-35.204
56.062	934.24	11.4710	0.1832	-34.203
56.070	934.31	11.4710	0.1832	-33.210
56.078	934.37	11.4710	0.1832	-32.226
56.087	934.43	11.4710	0.1832	-31.251
56.095	934.49	11.4710	0.1832	-30.284
56.103	934.54	11.4711	0.1832	-29.324
56.112	934.60	11.4711	0.1832	-28.373
56.120	934.65	11.4712	0.1832	-27.430
56.128	934.70	11.4713	0.1832	-26.497
56.137	934.75	11.4714	0.1832	-25.574
56.145	934.80	11.4716	0.1832	-24.660
56.153	934.85	11.4717	0.1832	-23.756
56.162	934.90	11.4719	0.1832	-22.861
56.170	934.94	11.4720	0.1832	-21.974
56.178	934.99	11.4722	0.1832	-21.097
56.187	935.03	11.4724	0.1832	-20.230
56.195	935.07	11.4725	0.1832	-19.371
56.203	935.11	11.4727	0.1832	-18.520
56.212	935.15	11.4729	0.1832	-17.677
56.220	935.19	11.4730	0.1832	-16.843
56.228	935.23	11.4732	0.1832	-16.018
56.237	935.26	11.4734	0.1832	-15.202
56.245	935.30	11.4736	0.1832	-14.394
56.253	935.34	11.4738	0.1832	-13.597
56.262	935.37	11.4740	0.1833	-12.808
56.270	935.41	11.4742	0.1833	-12.027
56.278	935.44	11.4745	0.1833	-11.256
56.287	935.48	11.4748	0.1833	-10.496
56.295	935.51	11.4750	0.1833	-9.742
56.303	935.54	11.4753	0.1833	-8.995
56.312	935.58	11.4755	0.1833	-8.257
56.320	935.61	11.4758	0.1833	-7.528
56.328	935.64	11.4761	0.1833	-6.809
56.337	935.68	11.4764	0.1833	-6.096
56.345	935.71	11.4767	0.1833	-5.390
56.353	935.74	11.4770	0.1833	-4.693
56.362	935.77	11.4773	0.1833	-4.002
56.370	935.81	11.4776	0.1833	-3.317
56.378	935.84	11.4779	0.1833	-2.642
56.387	935.87	11.4783	0.1833	-1.975
56.395	935.90	11.4787	0.1833	-1.317
56.403	935.93	11.4790	0.1833	-0.663
56.412	935.97	11.4794	0.1833	-0.014
56.420	936.00	11.4798	0.1833	0.629
56.428	936.03	11.4802	0.1834	1.264
56.437	936.06	11.4805	0.1834	1.890
56.445	936.10	11.4809	0.1834	2.508
56.453	936.13	11.4813	0.1834	3.120
56.462	936.16	11.4816	0.1834	3.726
56.470	936.19	11.4820	0.1834	4.327
56.478	936.23	11.4824	0.1834	4.922
56.487	936.26	11.4828	0.1834	5.509
56.495	936.29	11.4832	0.1834	6.092
56.503	936.32	11.4836	0.1834	6.665
56.512	936.36	11.4840	0.1834	7.233
56.520	936.39	11.4844	0.1834	7.796
56.528	936.42	11.4847	0.1834	8.355
56.537	936.46	11.4851	0.1834	8.909
56.545	936.49	11.4854	0.1834	9.457
56.553	936.53	11.4858	0.1834	10.000
56.562	936.56	11.4861	0.1834	10.539
56.570	936.59	11.4865	0.1835	11.074
56.578	936.63	11.4868	0.1835	11.602
56.587	936.66	11.4871	0.1835	12.126
56.595	936.70	11.4875	0.1835	12.647
56.603	936.73	11.4878	0.1835	13.164
56.612	936.77	11.4882	0.1835	13.677
56.620	936.80	11.4886	0.1835	14.183
56.628	936.84	11.4891	0.1835	14.687
56.637	936.88	11.4895	0.1835	15.184
56.645	936.91	11.4899	0.1835	15.678
56.653	936.95	11.4903	0.1835	16.166
56.662	936.99	11.4907	0.1835	16.652
56.670	937.02	11.4911	0.1835	17.135
56.678	937.06	11.4916	0.1835	17.616
56.687	937.10	11.4921	0.1835	18.093
56.695	937.13	11.4925	0.1835	18.566
56.703	937.17	11.4930	0.1836	19.033
56.712	937.21	11.4934	0.1836	19.499
56.720	937.25	11.4939	0.1836	19.962
56.728	937.28	11.4943	0.1836	20.421
56.737	937.32	11.4948	0.1836	20.878
56.745	937.36	11.4954	0.1836	21.330
56.753	937.40	11.4959	0.1836	21.780
56.762	937.44	11.4964	0.1836	22.224
56.770	937.47	11.4970	0.1836	22.665
56.778	937.51	11.4975	0.1836	23.102
56.787	937.55	11.4981	0.1836	23.537
56.795	937.59	11.4987	0.1836	23.968
56.803	937.63	11.4992	0.1837	24.397
56.812	937.67	11.4998	0.1837	24.823
56.820	937.71	11.5003	0.1837	25.245
56.828	937.74	11.5009	0.1837	25.663
56.837	937.78	11.5014	0.1837	26.079
56.845	937.82	11.5019	0.1837	26.491
56.853	937.86	11.5024	0.1837	26.904
56.862	937.90	11.5028	0.1837	27.314
56.870	937.94	11.5033	0.1837	27.724
56.878	937.98	11.5037	0.1837	28.131
56.887	938.02	11.5041	0.1837	28.537
56.895	938.06	11.5046	0.1837	28.942
56.903	938.10	11.5050	0.1837	29.344
56.912	938.14	11.5054	0.1838	29.744
56.920	938.18	11.5059	0.1838	30.144
56.928	938.22	11.5063	0.1838	30.543
56.937	938.26	11.5067	0.1838	30.938
56.945	938.29	11.5071	0.1838	31.331
56.953	938.33	11.5076	0.1838	31.719
56.962	938.37	11.5080	0.1838	32.107
56.970	938.41	11.5085	0.1838	32.491
56.978	938.45	11.5089	0.1838	32.874
56.987	938.49	11.5093	0.1838	33.256
56.995	938.53	11.5097	0.1838	33.636
57.003	938.57	11.5101	0.1838	34.012
57.012	938.61	11.5105	0.1838	34.386
57.020	938.65	11.5109	0.1838	34.757
57.028	938.69	11.5113	0.1838	35.126
57.037	938.72	11.5117	0.1839	35.497
57.045	938.76	11.5121	0.1839	35.863
57.053	938.80	11.5125	0.1839	36.230
57.062	938.84	11.5128	0.1839	36.594
57.070	938.88	11.5132	0.1839	36.958
57.078	938.92	11.5136	0.1839	37.319
57.087	938.96	11.5140	0.1839	37.681
57.095	939.00	11.5144	0.1839	38.040
57.103	939.03	11.5147	0.1839	38.399
57.112	939.07	11.5151	0.1839	38.757
57.120	939.11	11.5154	0.1839	39.112
57.128	939.15	11.5158	0.1839	39.467
57.137	939.19	11.5162	0.1839	39.815
57.145	939.22	11.5166	0.1839	40.164
57.153	939.26	11.5170	0.1839	40.510
57.162	939.30	11.5174	0.1839	40.855
57.170	939.34	11.5177	0.1840	41.198
57.178	939.37	11.5181	0.1840	41.540
57.187	939.41	11.5185	0.1840	41.881
57.195	939.45	11.5189	0.1840	42.221
57.203	939.49	11.5192	0.1840	42.559
57.212	939.52	11.5196	0.1840	42.894
57.220	939.56	11.5200	0.1840	43.230
57.228	939.60	11.5204	0.1840	43.563
57.237	939.63	11.5207	0.1840	43.895
57.245	939.67	11.5211	0.1840	44.227
57.253	939.71	11.5214	0.1840	44.556
57.262	939.74	11.5217	0.1840	44.883
57.270	939.78	11.5221	0.1840	45.209
57.278	939.81	11.5223	0.1840	45.533
57.287	939.85	11.5226	0.1840	45.855
57.295	939.89	11.5229	0.1840	46.178
57.303	939.92	11.5232	0.1840	46.498
57.312	939.96	11.5234	0.1840	46.817
57.320	939.99	11.5237	0.1840	47.137
57.328	940.03	11.5241	0.1841	47.454
57.337	940.06	11.5244	0.1841	47.770
57.345	940.10	11.5247	0.1841	48.083
57.353	940.13	11.5251	0.1841	48.394
57.362	940.17	11.5254	0.1841	48.704
57.370	940.20	11.5258	0.1841	49.013
57.378	940.24	11.5261	0.1841	49.319
57.387	940.27	11.5265	0.1841	49.625
57.395	940.30	11.5268	0.1841	49.929
57.403	940.34	11.5271	0.1841	50.229
57.412	940.37	11.5274	0.1841	50.526
57.420	940.41	11.5277	0.1841	50.825
57.428	940.44	11.5280	0.1841	51.122
57.437	940.47	11.5283	0.1841	51.419
57.445	940.51	11.5286	0.1841	51.714
57.453	940.54	11.5288	0.1841	52.007
57.462	940.57	11.5291	0.1841	52.297
57.470	940.60	11.5293	0.1841	52.585
57.478	940.64	11.5295	0.1841	52.872
57.487	940.67	11.5297	0.1841	53.161
57.495	940.70	11.5299	0.1841	53.447
57.503	940.73	11.5301	0.1841	53.729
57.512	940.77	11.5304	0.1842	54.011
57.520	940.80	11.5306	0.1842	54.291
57.528	940.83	11.5308	0.1842	54.571
57.537	940.86	11.5310	0.1842	54.850
57.545	940.89	11.5313	0.1842	55.129
57.553	940.92	11.5316	0.1842	55.407
57.562	940.96	11.5319	0.1842	55.685
57.570	940.99	11.5322	0.1842	55.957
57.578	941.02	11.5325	0.1842	56.229
57.587	941.05	11.5328	0.1842	56.501
57.595	941.08	11.5331	0.1842	56.772
57.603	941.11	11.5334	0.1842	57.040
57.612	941.14	11.5337	0.1842	57.305
57.620	941.17	11.5340	0.1842	57.572
57.628	941.20	11.5343	0.1842	57.837
57.637	941.23	11.5346	0.1842	58.099
57.645	941.26	11.5349	0.1842	58.358
57.653	941.29	11.5352	0.1842	58.618
57.662	941.32	11.5355	0.1842	58.877
57.670	941.35	11.5357	0.1842	59.133
57.678	941.38	11.5360	0.1842	59.390
57.687	941.41	11.5362	0.1842	59.643
57.695	941.44	11.5365	0.1842	59.899
57.703	941.47	11.5367	0.1843	60.152
57.712	941.50	11.5368	0.1843	60.403
57.720	941.53	11.5370	0.1843	60.657
57.728	941.56	11.5371	0.1843	60.907
57.737	941.59	11.5372	0.1843	61.154
57.745	941.61	11.5374	0.1843	61.400
57.753	941.64	11.5375	0.1843	61.648
57.762	941.67	11.5376	0.1843	61.893
57.770	941.70	11.5378	0.1843	62.136
57.778	941.73	11.5379	0.1843	62.376
57.787	941.76	11.5381	0.1843	62.615
57.795	941.78	11.5383	0.1843	62.853
57.803	941.81	11.5384	0.1843	63.087
57.812	941.84	11.5386	0.1843	63.321
57.820	941.87	11.5388	0.1843	63.554
57.828	941.89	11.5389	0.1843	63.786
57.837	941.92	11.5391	0.1843	64.017
57.845	941.95	11.5393	0.1843	64.245
57.853	941.98	11.5395	0.1843	64.473
57.862	942.00	11.5397	0.1843	64.700
57.870	942.03	11.5400	0.1843	64.924
57.878	942.06	11.5402	0.1843	65.147
57.887	942.08	11.5405	0.1843	65.370
57.895	942.11	11.5408	0.1843	65.593
57.903	942.14	11.5410	0.1843	65.816
57.912	942.16	11.5413	0.1843	66.037
57.920	942.19	11.5416	0.1843	66.257
57.928	942.22	11.5418	0.1843	66.475
57.937	942.24	11.5420	0.1843	66.693
57.945	942.27	11.5422	0.1843	66.908
57.953	942.29	11.5424	0.1843	67.123
57.962	942.32	11.5425	0.1843	67.336
57.970	942.34	11.5427	0.1843	67.549
57.978	942.37	11.5428	0.1844	67.761
57.987	942.40	11.5430	0.1844	67.970
57.995	942.42	11.5431	0.1844	68.178
58.003	942.45	11.5432	0.1844	68.385
58.012	942.47	11.5434	0.1844	68.592
58.020	942.50	11.5436	0.1844	68.797
58.028	942.52	11.5439	0.1844	69.003
58.037	942.55	11.5441	0.1844	69.205
58.045	942.57	11.5443	0.1844	69.406
58.053	942.60	11.5445	0.1844	69.605
58.062	942.62	11.5446	0.1844	69.803
58.070	942.65	11.5448	0.1844	70.002
58.078	942.67	11.5449	0.1844	70.197
58.087	942.69	11.5450	0.1844	70.393
58.095	942.72	11.5451	0.1844	70.587
58.103	942.74	11.5452	0.1844	70.780
58.112	942.77	11.5454	0.1844	70.973
58.120	942.79	11.5455	0.1844	71.166
58.128	942.82	11.5456	0.1844	71.358
58.137	942.84	11.5457	0.1844	71.548
58.145	942.86	11.5459	0.1844	71.736
58.153	942.89	11.5460	0.1844	71.924
58.162	942.91	11.5462	0.1844	72.112
58.170	942.93	11.5463	0.1844	72.296
58.178	942.96	11.5465	0.1844	72.480
58.187	942.98	11.5467	0.1844	72.662
58.195	943.00	11.5469	0.1844	72.841
58.203	943.03	11.5471	0.1844	73.022
58.212	943.05	11.5473	0.1844	73.200
58.220	943.07	11.5474	0.1844	73.375
58.228	943.10	11.5476	0.1844	73.553
58.237	943.12	11.5478	0.1844	73.730
58.245	943.14	11.5479	0.1844	73.905
58.253	943.17	11.5480	0.1844	74.080
58.262	943.19	11.5481	0.1844	74.254
58.270	943.21	11.5481	0.1844	74.427
58.278	943.23	11.5482	0.1844	74.599
58.287	943.25	11.5482	0.1844	74.771
58.295	943.28	11.5483	0.1844	74.944
58.303	943.30	11.5483	0.1844	75.115
58.312	943.32	11.5484	0.1844	75.282
58.320	943.34	11.5484	0.1844	75.449
58.328	943.36	11.5485	0.1844	75.614
58.337	943.39	11.5486	0.1844	75.778
58.345	943.41	11.5487	0.1844	75.942
58.353	943.43	11.5487	0.1844	76.105
58.362	943.45	11.5488	0.1844	76.266
58.370	943.47	11.5489	0.1844	76.426
58.378	943.49	11.5489	0.1844	76.585
58.387	943.52	11.5490	0.1844	76.746
58.395	943.54	11.5490	0.1845	76.906
58.403	943.56	11.5491	0.1845	77.065
58.412	943.58	11.5492	0.1845	77.223
58.420	943.60	11.5492	0.1845	77.382
58.428	943.62	11.5492	0.1845	77.538
58.437	943.64	11.5492	0.1845	77.694
58.445	943.66	11.5492	0.1845	77.849
58.453	943.69	11.5491	0.1845	78.004
58.462	943.71	11.5491	0.1845	78.158
58.470	943.73	11.5491	0.1845	78.310
58.478	943.75	11.5491	0.1845	78.460
58.487	943.77	11.5491	0.1845	78.610
58.495	943.79	11.5491	0.1845	78.760
58.503	943.81	11.5491	0.1845	78.908
58.512	943.83	11.5491	0.1845	79.056
58.520	943.85	11.5491	0.1845	79.201
58.528	943.87	11.5491	0.1845	79.347
58.537	943.89	11.5492	0.1845	79.491
58.545	943.91	11.5493	0.1845	79.633
58.553	943.93	11.5493	0.1845	79.776
58.562	943.95	11.5494	0.1845	79.920
58.570	943.97	11.5494	0.1845	80.062
58.578	943.99	11.5495	0.1845	80.201
58.587	944.01	11.5495	0.1845	80.340
58.595	944.03	11.5496	0.1845	80.478
58.603	944.05	11.5497	0.1845	80.615
58.612	944.07	11.5498	0.1845	80.752
58.620	944.09	11.5498	0.1845	80.890
58.628	944.11	11.5500	0.1845	81.027
58.637	944.12	11.5501	0.1845	81.163
58.645	944.14	11.5502	0.1845	81.299
58.653	944.16	11.5503	0.1845	81.433
58.662	944.18	11.5504	0.1845	81.565
58.670	944.20	11.5505	0.1845	81.696
58.678	944.22	11.5506	0.1845	81.830
58.687	944.24	11.5507	0.1845	81.964
58.695	944.26	11.5507	0.1845	82.096
58.703	944.28	11.5508	0.1845	82.226
58.712	944.30	11.5509	0.1845	82.354
58.720	944.31	11.5509	0.1845	82.481
58.728	944.33	11.5510	0.1845	82.606
58.737	944.35	11.5511	0.1845	82.730
58.745	944.37	11.5512	0.1845	82.856
58.753	944.39	11.5512	0.1845	82.981
58.762	944.41	11.5513	0.1845	83.103
58.770	944.42	11.5514	0.1845	83.223
58.778	944.44	11.5515	0.1845	83.342
58.787	944.46	11.5515	0.1845	83.462
58.795	944.48	11.5516	0.1845	83.580
58.803	944.50	11.5516	0.1845	83.698
58.812	944.51	11.5516	0.1845	83.815
58.820	944.53	11.5516	0.1845	83.934
58.828	944.55	11.5516	0.1845	84.054
58.837	944.57	11.5516	0.1845	84.172
58.845	944.59	11.5517	0.1845	84.289
58.853	944.60	11.5516	0.1845	84.408
58.862	944.62	11.5516	0.1845	84.525
58.870	944.64	11.5516	0.1845	84.641
58.878	944.66	11.5515	0.1845	84.756
58.887	944.67	11.5515	0.1845	84.870
58.895	944.69	11.5515	0.1845	84.985
58.903	944.71	11.5515	0.1845	85.098
58.912	944.73	11.5514	0.1845	85.211
58.920	944.74	11.5514	0.1845	85.323
58.928	944.76	11.5514	0.1845	85.434
58.937	944.78	11.5514	0.1845	85.544
58.945	944.80	11.5514	0.1845	85.653
58.953	944.81	11.5514	0.1845	85.763
58.962	944.83	11.5514	0.1845	85.872
58.970	944.85	11.5515	0.1845	85.982
58.978	944.86	11.5516	0.1845	86.089
58.987	944.88	11.5516	0.1845	86.196
58.995	944.90	11.5517	0.1845	86.300
59.003	944.91	11.5518	0.1845	86.404
59.012	944.93	11.5519	0.1845	86.509
59.020	944.95	11.5520	0.1845	86.613
59.028	944.96	11.5520	0.1845	86.718
59.037	944.98	11.5520	0.1845	86.821
59.045	944.99	11.5521	0.1845	86.923
59.053	945.01	11.5521	0.1845	87.025
59.062	945.03	11.5521	0.1845	87.128
59.070	945.04	11.5521	0.1845	87.229
59.078	945.06	11.5522	0.1845	87.330
59.087	945.08	11.5522	0.1845	87.430
59.095	945.09	11.5522	0.1845	87.530
59.103	945.11	11.5522	0.1845	87.628
59.112	945.12	11.5522	0.1845	87.725
59.120	945.14	11.5522	0.1845	87.822
59.128	945.16	11.5522	0.1845	87.918
59.137	945.17	11.5522	0.1845	88.014
59.145	945.19	11.5522	0.1845	88.109
59.153	945.20	11.5521	0.1845	88.202
59.162	945.22	11.5521	0.1845	88.295
59.170	945.23	11.5520	0.1845	88.390
59.178	945.25	11.5520	0.1845	88.484
59.187	945.26	11.5520	0.1845	88.577
59.195	945.28	11.5521	0.1845	88.671
59.203	945.30	11.5521	0.1845	88.763
59.212	945.31	11.5521	0.1845	88.854
59.220	945.33	11.5522	0.1845	88.943
59.228	945.34	11.5522	0.1845	89.033
59.237	945.36	11.5523	0.1845	89.123
59.245	945.37	11.5523	0.1845	89.211
59.253	945.39	11.5523	0.1845	89.299
59.262	945.40	11.5523	0.1845	89.387
59.270	945.42	11.5523	0.1845	89.473
59.278	945.43	11.5523	0.1845	89.559
59.287	945.45	11.5523	0.1845	89.647
59.295	945.46	11.5523	0.1845	89.733
59.303	945.48	11.5523	0.1845	89.819
59.312	945.49	11.5522	0.1845	89.905
59.320	945.51	11.5522	0.1845	89.993
59.328	945.52	11.5522	0.1845	90.079
59.337	945.53	11.5522	0.1845	90.163
59.345	945.55	11.5522	0.1845	90.245
59.353	945.56	11.5522	0.1845	90.330
59.362	945.58	11.5522	0.1845	90.411
59.370	945.59	11.5522	0.1845	90.491
59.378	945.61	11.5522	0.1845	90.573
59.387	945.62	11.5523	0.1845	90.655
59.395	945.63	11.5523	0.1845	90.735
59.403	945.65	11.5523	0.1845	90.814
59.412	945.66	11.5523	0.1845	90.893
59.420	945.68	11.5523	0.1845	90.973
59.428	945.69	11.5523	0.1845	91.052
59.437	945.71	11.5523	0.1845	91.131
59.445	945.72	11.5522	0.1845	91.209
59.453	945.73	11.5522	0.1845	91.289
59.462	945.75	11.5521	0.1845	91.366
59.470	945.76	11.5521	0.1845	91.441
59.478	945.77	11.5520	0.1845	91.515
59.487	945.79	11.5520	0.1845	91.591
59.495	945.80	11.5519	0.1845	91.665
59.503	945.82	11.5519	0.1845	91.740
59.512	945.83	11.5519	0.1845	91.814
59.520	945.84	11.5519	0.1845	91.888
59.528	945.86	11.5519	0.1845	91.962
59.537	945.87	11.5519	0.1845	92.036
59.545	945.88	11.5519	0.1845	92.109
59.553	945.90	11.5519	0.1845	92.181
59.562	945.91	11.5519	0.1845	92.255
59.570	945.92	11.5519	0.1845	92.328
59.578	945.94	11.5519	0.1845	92.401
59.587	945.95	11.5519	0.1845	92.474
59.595	945.96	11.5518	0.1845	92.546
59.603	945.98	11.5518	0.1845	92.616
59.612	945.99	11.5517	0.1845	92.687
59.620	946.00	11.5517	0.1845	92.759
59.628	946.01	11.5516	0.1845	92.830
59.637	946.03	11.5515	0.1845	92.901
59.645	946.04	11.5515	0.1845	92.972
59.653	946.05	11.5514	0.1845	93.045
59.662	946.07	11.5513	0.1845	93.115
59.670	946.08	11.5512	0.1845	93.182
59.678	946.09	11.5512	0.1845	93.252
59.687	946.10	11.5511	0.1845	93.321
59.695	946.12	11.5510	0.1845	93.390
59.703	946.13	11.5509	0.1845	93.458
59.712	946.14	11.5508	0.1845	93.527
59.720	946.15	11.5507	0.1845	93.594
59.728	946.17	11.5506	0.1845	93.662
59.737	946.18	11.5505	0.1845	93.727
59.745	946.19	11.5504	0.1845	93.792
59.753	946.20	11.5503	0.1845	93.859
59.762	946.22	11.5503	0.1845	93.924
59.770	946.23	11.5502	0.1845	93.990
59.778	946.24	11.5502	0.1845	94.054
59.787	946.25	11.5502	0.1845	94.118
59.795	946.26	11.5502	0.1845	94.181
59.803	946.28	11.5502	0.1845	94.244
59.812	946.29	11.5501	0.1845	94.306
59.820	946.30	11.5501	0.1845	94.366
59.828	946.31	11.5501	0.1845	94.428
59.837	946.32	11.5500	0.1845	94.491
59.845	946.34	11.5499	0.1845	94.554
59.853	946.35	11.5498	0.1845	94.614
59.862	946.36	11.5497	0.1845	94.673
59.870	946.37	11.5496	0.1845	94.733
59.878	946.38	11.5495	0.1845	94.793
59.887	946.40	11.5494	0.1845	94.854
59.895	946.41	11.5493	0.1845	94.914
59.903	946.42	11.5492	0.1845	94.973
59.912	946.43	11.5491	0.1845	95.031
59.920	946.44	11.5490	0.1844	95.089
59.928	946.45	11.5489	0.1844	95.147
59.937	946.46	11.5489	0.1844	95.205
59.945	946.48	11.5488	0.1844	95.263
59.953	946.49	11.5487	0.1844	95.318
59.962	946.50	11.5487	0.1844	95.375
59.970	946.51	11.5486	0.1844	95.431
59.978	946.52	11.5485	0.1844	95.487
59.987	946.53	11.5485	0.1844	95.541
59.995	946.54	11.5484	0.1844	95.595
60.003	946.55	11.5484	0.1844	95.648
60.012	946.57	11.5483	0.1844	95.701
60.020	946.58	11.5483	0.1844	95.754
60.028	946.59	11.5482	0.1844	95.805
60.037	946.60	11.5482	0.1844	95.857
60.045	946.61	11.5482	0.1844	95.909
60.053	946.62	11.5481	0.1844	95.960
60.062	946.63	11.5480	0.1844	96.011
60.070	946.64	11.5479	0.1844	96.065
60.078	946.65	11.5478	0.1844	96.118
60.087	946.66	11.5477	0.1844	96.172
60.095	946.68	11.5476	0.1844	96.223
60.103	946.69	11.5474	0.1844	96.274
60.112	946.70	11.5473	0.1844	96.327
60.120	946.71	11.5472	0.1844	96.379
60.128	946.72	11.5471	0.1844	96.430
60.137	946.73	11.5470	0.1844	96.480
60.145	946.74	11.5470	0.1844	96.529
60.153	946.75	11.5471	0.1844	96.576
60.162	946.76	11.5471	0.1844	96.623
60.170	946.77	11.5472	0.1844	96.669
60.178	946.78	11.5472	0.1844	96.718
60.187	946.79	11.5473	0.1844	96.767
60.195	946.80	11.5473	0.1844	96.813
60.203	946.81	11.5474	0.1844	96.860
60.212	946.82	11.5474	0.1844	96.906
60.220	946.83	11.5475	0.1844	96.954
60.228	946.84	11.5475	0.1844	97.004
60.237	946.85	11.5474	0.1844	97.053
60.245	946.86	11.5474	0.1844	97.100
60.253	946.87	11.5474	0.1844	97.147
60.262	946.88	11.5473	0.1844	97.191
60.270	946.89	11.5473	0.1844	97.236
60.278	946.91	11.5472	0.1844	97.282
60.287	946.92	11.5471	0.1844	97.327
60.295	946.93	11.5470	0.1844	97.374
60.303	946.94	11.5469	0.1844	97.419
60.312	946.95	11.5467	0.1844	97.462
60.320	946.96	11.5466	0.1844	97.506
60.328	946.97	11.5465	0.1844	97.550
60.337	946.97	11.5463	0.1844	97.594
60.345	946.98	11.5462	0.1844	97.640
60.353	946.99	11.5460	0.1844	97.684
60.362	947.00	11.5459	0.1844	97.727
60.370	947.01	11.5458	0.1844	97.768
60.378	947.02	11.5457	0.1844	97.808
60.387	947.03	11.5456	0.1844	97.847
60.395	947.04	11.5455	0.1844	97.888
60.403	947.05	11.5454	0.1844	97.929
60.412	947.06	11.5453	0.1844	97.970
60.420	947.07	11.5452	0.1844	98.009
60.428	947.08	11.5452	0.1844	98.047
60.437	947.09	11.5452	0.1844	98.086
60.445		11.5452	0.1844
60.453		11.5451	0.1844
60.462		11.5451	0.1844
60.470		11.5451	0.1844
60.478		11.5450	0.1844