File: example/deconvolution/CLSOx5_3.txt
Time	Temperature	Weight	Weight	Heat Flow
min	°C	%	µg	mW
0.003		100.0011	11078.5
0.012		100.0026	11078.6
0.020		100.0039	11078.8
0.028		100.0053	11078.9
0.037		100.0066	11079.1
0.045	23.28	100.0079	11079.2	-16.692
0.053	23.32	100.0091	11079.4	-16.665
0.062	23.36	100.0103	11079.5	-16.638
0.070	23.39	100.0114	11079.6	-16.613
0.078	23.43	100.0124	11079.7	-16.588
0.087	23.47	100.0134	11079.8	-16.564
0.095	23.51	100.0143	11079.9	-16.540
0.103	23.54	100.0151	11080	-16.517
0.112	23.58	100.0159	11080.1	-16.493
0.120	23.62	100.0165	11080.2	-16.470
0.128	23.65	100.0171	11080.2	-16.449
0.137	23.69	100.0177	11080.3	-16.427
0.145	23.73	100.0182	11080.4	-16.406
0.153	23.76	100.0186	11080.4	-16.385
0.162	23.80	100.0189	11080.4	-16.364
0.170	23.83	100.0192	11080.5	-16.344
0.178	23.87	100.0195	11080.5	-16.323
0.187	23.90	100.0197	11080.5	-16.304
0.195	23.94	100.0198	11080.5	-16.284
0.203	23.97	100.0200	11080.6	-16.264
0.212	24.00	100.0200	11080.6	-16.244
0.220	24.04	100.0200	11080.6	-16.225
0.228	24.07	100.0200	11080.6	-16.206
0.237	24.10	100.0199	11080.6	-16.187
0.245	24.14	100.0198	11080.5	-16.168
0.253	24.17	100.0197	11080.5	-16.149
0.262	24.20	100.0195	11080.5	-16.132
0.270	24.24	100.0192	11080.5	-16.113
0.278	24.27	100.0190	11080.4	-16.096
0.287	24.30	100.0187	11080.4	-16.078
0.295	24.33	100.0183	11080.4	-16.060
0.303	24.37	100.0179	11080.3	-16.043
0.312	24.40	100.0175	11080.3	-16.025
0.320	24.43	100.0171	11080.2	-16.008
0.328	24.47	100.0166	11080.2	-15.992
0.337	24.50	100.0161	11080.1	-15.976
0.345	24.53	100.0155	11080.1	-15.960
0.353	24.56	100.0150	11080	-15.944
0.362	24.60	100.0144	11079.9	-15.929
0.370	24.63	100.0137	11079.9	-15.914
0.378	24.66	100.0131	11079.8	-15.899
0.387	24.69	100.0124	11079.7	-15.883
0.395	24.73	100.0117	11079.6	-15.868
0.403	24.76	100.0110	11079.6	-15.852
0.412	24.79	100.0102	11079.5	-15.837
0.420	24.83	100.0094	11079.4	-15.822
0.428	24.86	100.0086	11079.3	-15.807
0.437	24.89	100.0077	11079.2	-15.791
0.445	24.93	100.0069	11079.1	-15.777
0.453	24.96	100.0059	11079	-15.762
0.462	25.00	100.0050	11078.9	-15.747
0.470	25.03	100.0040	11078.8	-15.733
0.478	25.07	100.0030	11078.7	-15.718
0.487	25.11	100.0020	11078.6	-15.704
0.495	25.14	100.0010	11078.5	-15.689
0.503	25.18	99.9999	11078.3	-15.675
0.512	25.22	99.9988	11078.2	-15.660
0.520	25.26	99.9977	11078.1	-15.646
0.528	25.30	99.9966	11078	-15.631
0.537	25.33	99.9954	11077.8	-15.616
0.545	25.37	99.9943	11077.7	-15.602
0.553	25.41	99.9931	11077.6	-15.587
0.562	25.45	99.9919	11077.4	-15.572
0.570	25.49	99.9907	11077.3	-15.557
0.578	25.53	99.9895	11077.2	-15.541
0.587	25.58	99.9883	11077	-15.524
0.595	25.62	99.9871	11076.9	-15.508
0.603	25.66	99.9859	11076.8	-15.492
0.612	25.70	99.9846	11076.6	-15.476
0.620	25.75	99.9834	11076.5	-15.460
0.628	25.79	99.9821	11076.4	-15.443
0.637	25.83	99.9808	11076.2	-15.426
0.645	25.88	99.9796	11076.1	-15.409
0.653	25.93	99.9783	11075.9	-15.392
0.662	25.97	99.9770	11075.8	-15.376
0.670	26.02	99.9757	11075.7	-15.360
0.678	26.07	99.9744	11075.5	-15.344
0.687	26.11	99.9732	11075.4	-15.328
0.695	26.16	99.9719	11075.2	-15.311
0.703	26.21	99.9706	11075.1	-15.294
0.712	26.26	99.9693	11074.9	-15.277
0.720	26.31	99.9680	11074.8	-15.259
0.728	26.36	99.9667	11074.7	-15.241
0.737	26.41	99.9654	11074.5	-15.223
0.745	26.46	99.9641	11074.4	-15.205
0.753	26.51	99.9628	11074.2	-15.185
0.762	26.56	99.9615	11074.1	-15.166
0.770	26.62	99.9601	11073.9	-15.146
0.778	26.67	99.9588	11073.8	-15.126
0.787	26.72	99.9574	11073.6	-15.106
0.795	26.78	99.9561	11073.5	-15.085
0.803	26.83	99.9548	11073.3	-15.064
0.812	26.89	99.9534	11073.2	-15.043
0.820	26.95	99.9521	11073	-15.022
0.828	27.00	99.9507	11072.9	-15.001
0.837	27.06	99.9494	11072.7	-14.980
0.845	27.12	99.9480	11072.6	-14.959
0.853	27.17	99.9467	11072.4	-14.937
0.862	27.23	99.9454	11072.3	-14.915
0.870	27.29	99.9440	11072.1	-14.893
0.878	27.35	99.9427	11072	-14.870
0.887	27.41	99.9414	11071.8	-14.848
0.895	27.47	99.9400	11071.7	-14.825
0.903	27.53	99.9387	11071.6	-14.801
0.912	27.60	99.9374	11071.4	-14.777
0.920	27.66	99.9361	11071.3	-14.753
0.928	27.72	99.9348	11071.1	-14.729
0.937	27.78	99.9334	11071	-14.704
0.945	27.85	99.9321	11070.8	-14.679
0.953	27.91	99.9308	11070.7	-14.654
0.962	27.98	99.9295	11070.5	-14.629
0.970	28.04	99.9282	11070.4	-14.603
0.978	28.11	99.9269	11070.2	-14.577
0.987	28.17	99.9256	11070.1	-14.551
0.995	28.24	99.9243	11070	-14.524
1.003	28.31	99.9230	11069.8	-14.498
1.012	28.38	99.9217	11069.7	-14.471
1.020	28.44	99.9205	11069.5	-14.444
1.028	28.51	99.9192	11069.4	-14.417
1.037	28.58	99.9179	11069.2	-14.388
1.045	28.65	99.9166	11069.1	-14.360
1.053	28.72	99.9154	11069	-14.332
1.062	28.79	99.9141	11068.8	-14.302
1.070	28.86	99.9128	11068.7	-14.273
1.078	28.93	99.9116	11068.5	-14.243
1.087	29.01	99.9103	11068.4	-14.213
1.095	29.08	99.9091	11068.3	-14.182
1.103	29.15	99.9078	11068.1	-14.150
1.112	29.22	99.9066	11068	-14.118
1.120	29.30	99.9054	11067.9	-14.086
1.128	29.37	99.9041	11067.7	-14.053
1.137	29.45	99.9029	11067.6	-14.019
1.145	29.52	99.9017	11067.5	-13.986
1.153	29.60	99.9004	11067.3	-13.951
1.162	29.67	99.8992	11067.2	-13.916
1.170	29.75	99.8980	11067	-13.881
1.178	29.83	99.8968	11066.9	-13.844
1.187	29.90	99.8956	11066.8	-13.808
1.195	29.98	99.8944	11066.6	-13.771
1.203	30.06	99.8931	11066.5	-13.735
1.212	30.14	99.8920	11066.4	-13.698
1.220	30.22	99.8908	11066.2	-13.661
1.228	30.30	99.8896	11066.1	-13.622
1.237	30.38	99.8884	11066	-13.583
1.245	30.46	99.8872	11065.8	-13.545
1.253	30.54	99.8860	11065.7	-13.506
1.262	30.62	99.8848	11065.6	-13.467
1.270	30.70	99.8836	11065.4	-13.428
1.278	30.78	99.8824	11065.3	-13.387
1.287	30.86	99.8812	11065.2	-13.345
1.295	30.94	99.8800	11065.1	-13.303
1.303	31.03	99.8789	11064.9	-13.261
1.312	31.11	99.8777	11064.8	-13.219
1.320	31.19	99.8765	11064.7	-13.177
1.328	31.28	99.8753	11064.5	-13.134
1.337	31.36	99.8741	11064.4	-13.090
1.345	31.44	99.8729	11064.3	-13.045
1.353	31.53	99.8717	11064.1	-13.001
1.362	31.61	99.8705	11064	-12.956
1.370	31.70	99.8693	11063.9	-12.911
1.378	31.78	99.8681	11063.7	-12.866
1.387	31.87	99.8669	11063.6	-12.819
1.395	31.96	99.8657	11063.5	-12.772
1.403	32.04	99.8644	11063.3	-12.724
1.412	32.13	99.8632	11063.2	-12.676
1.420	32.22	99.8620	11063.1	-12.627
1.428	32.31	99.8607	11062.9	-12.578
1.437	32.39	99.8595	11062.8	-12.528
1.445	32.48	99.8582	11062.6	-12.478
1.453	32.57	99.8570	11062.5	-12.427
1.462	32.66	99.8557	11062.4	-12.375
1.470	32.75	99.8544	11062.2	-12.324
1.478	32.84	99.8532	11062.1	-12.271
1.487	32.93	99.8519	11061.9	-12.218
1.495	33.02	99.8506	11061.8	-12.165
1.503	33.11	99.8494	11061.7	-12.112
1.512	33.20	99.8481	11061.5	-12.059
1.520	33.29	99.8468	11061.4	-12.005
1.528	33.38	99.8455	11061.2	-11.952
1.537	33.47	99.8442	11061.1	-11.898
1.545	33.56	99.8429	11060.9	-11.843
1.553	33.65	99.8415	11060.8	-11.787
1.562	33.74	99.8402	11060.6	-11.732
1.570	33.84	99.8388	11060.5	-11.677
1.578	33.93	99.8375	11060.3	-11.621
1.587	34.02	99.8361	11060.2	-11.564
1.595	34.11	99.8347	11060	-11.507
1.603	34.21	99.8333	11059.9	-11.449
1.612	34.30	99.8319	11059.7	-11.391
1.620	34.39	99.8304	11059.6	-11.334
1.628	34.49	99.8290	11059.4	-11.276
1.637	34.58	99.8276	11059.2	-11.218
1.645	34.67	99.8261	11059.1	-11.160
1.653	34.77	99.8247	11058.9	-11.101
1.662	34.86	99.8232	11058.8	-11.042
1.670	34.96	99.8217	11058.6	-10.983
1.678	35.05	99.8202	11058.4	-10.924
1.687	35.15	99.8187	11058.3	-10.865
1.695	35.24	99.8172	11058.1	-10.804
1.703	35.34	99.8157	11057.9	-10.744
1.712	35.44	99.8142	11057.8	-10.682
1.720	35.53	99.8126	11057.6	-10.621
1.728	35.63	99.8110	11057.4	-10.560
1.737	35.72	99.8095	11057.2	-10.498
1.745	35.82	99.8079	11057.1	-10.437
1.753	35.92	99.8063	11056.9	-10.375
1.762	36.01	99.8046	11056.7	-10.313
1.770	36.11	99.8030	11056.5	-10.251
1.778	36.21	99.8013	11056.3	-10.188
1.787	36.30	99.7997	11056.2	-10.127
1.795	36.40	99.7980	11056	-10.065
1.803	36.50	99.7963	11055.8	-10.003
1.812	36.59	99.7946	11055.6	-9.941
1.820	36.69	99.7929	11055.4	-9.879
1.828	36.79	99.7912	11055.2	-9.818
1.837	36.88	99.7894	11055	-9.756
1.845	36.98	99.7876	11054.8	-9.694
1.853	37.08	99.7859	11054.6	-9.631
1.862	37.18	99.7841	11054.4	-9.568
1.870	37.27	99.7823	11054.2	-9.505
1.878	37.37	99.7804	11054	-9.442
1.887	37.47	99.7786	11053.8	-9.379
1.895	37.57	99.7767	11053.6	-9.316
1.903	37.67	99.7749	11053.4	-9.252
1.912	37.76	99.7730	11053.2	-9.188
1.920	37.86	99.7711	11053	-9.124
1.928	37.96	99.7691	11052.8	-9.060
1.937	38.06	99.7672	11052.6	-8.997
1.945	38.16	99.7653	11052.3	-8.934
1.953	38.26	99.7634	11052.1	-8.871
1.962	38.36	99.7614	11051.9	-8.808
1.970	38.45	99.7594	11051.7	-8.744
1.978	38.55	99.7575	11051.5	-8.680
1.987	38.65	99.7555	11051.3	-8.617
1.995	38.75	99.7535	11051	-8.554
2.003	38.85	99.7515	11050.8	-8.491
2.012	38.95	99.7495	11050.6	-8.428
2.020	39.05	99.7474	11050.4	-8.364
2.028	39.15	99.7454	11050.1	-8.301
2.037	39.25	99.7433	11049.9	-8.237
2.045	39.34	99.7413	11049.7	-8.172
2.053	39.44	99.7392	11049.4	-8.109
2.062	39.54	99.7371	11049.2	-8.045
2.070	39.64	99.7349	11049	-7.982
2.078	39.74	99.7328	11048.7	-7.919
2.087	39.84	99.7307	11048.5	-7.855
2.095	39.94	99.7285	11048.3	-7.791
2.103	40.04	99.7263	11048	-7.726
2.112	40.13	99.7242	11047.8	-7.662
2.120	40.23	99.7220	11047.5	-7.599
2.128	40.33	99.7198	11047.3	-7.536
2.137	40.43	99.7176	11047.1	-7.473
2.145	40.53	99.7153	11046.8	-7.409
2.153	40.63	99.7131	11046.6	-7.345
2.162	40.73	99.7108	11046.3	-7.281
2.170	40.83	99.7086	11046.1	-7.218
2.178	40.93	99.7063	11045.8	-7.155
2.187	41.03	99.7040	11045.6	-7.093
2.195	41.12	99.7017	11045.3	-7.030
2.203	41.22	99.6994	11045	-6.968
2.212	41.32	99.6971	11044.8	-6.904
2.220	41.42	99.6947	11044.5	-6.841
2.228	41.52	99.6924	11044.3	-6.778
2.237	41.62	99.6900	11044	-6.714
2.245	41.72	99.6877	11043.7	-6.651
2.253	41.82	99.6853	11043.5	-6.588
2.262	41.91	99.6829	11043.2	-6.525
2.270	42.01	99.6805	11043	-6.462
2.278	42.11	99.6781	11042.7	-6.399
2.287	42.21	99.6757	11042.4	-6.336
2.295	42.31	99.6733	11042.1	-6.273
2.303	42.41	99.6708	11041.9	-6.212
2.312	42.50	99.6684	11041.6	-6.149
2.320	42.60	99.6659	11041.3	-6.087
2.328	42.70	99.6634	11041.1	-6.026
2.337	42.80	99.6609	11040.8	-5.963
2.345	42.89	99.6585	11040.5	-5.901
2.353	42.99	99.6559	11040.2	-5.839
2.362	43.09	99.6534	11039.9	-5.777
2.370	43.19	99.6509	11039.7	-5.714
2.378	43.29	99.6483	11039.4	-5.653
2.387	43.38	99.6458	11039.1	-5.591
2.395	43.48	99.6432	11038.8	-5.529
2.403	43.58	99.6406	11038.5	-5.466
2.412	43.68	99.6380	11038.2	-5.405
2.420	43.78	99.6354	11038	-5.343
2.428	43.87	99.6328	11037.7	-5.282
2.437	43.97	99.6302	11037.4	-5.221
2.445	44.07	99.6275	11037.1	-5.160
2.453	44.16	99.6249	11036.8	-5.100
2.462	44.26	99.6222	11036.5	-5.039
2.470	44.36	99.6195	11036.2	-4.978
2.478	44.46	99.6168	11035.9	-4.918
2.487	44.55	99.6141	11035.6	-4.858
2.495	44.65	99.6114	11035.3	-4.798
2.503	44.74	99.6087	11035	-4.738
2.512	44.84	99.6060	11034.7	-4.677
2.520	44.94	99.6032	11034.4	-4.618
2.528	45.03	99.6004	11034.1	-4.557
2.537	45.13	99.5976	11033.8	-4.497
2.545	45.23	99.5949	11033.5	-4.438
2.553	45.32	99.5920	11033.1	-4.379
2.562	45.42	99.5892	11032.8	-4.319
2.570	45.51	99.5864	11032.5	-4.259
2.578	45.61	99.5835	11032.2	-4.200
2.587	45.71	99.5807	11031.9	-4.141
2.595	45.80	99.5778	11031.6	-4.082
2.603	45.90	99.5750	11031.3	-4.023
2.612	45.99	99.5721	11030.9	-3.964
2.620	46.09	99.5692	11030.6	-3.906
2.628	46.18	99.5663	11030.3	-3.848
2.637	46.28	99.5634	11030	-3.790
2.645	46.37	99.5605	11029.7	-3.732
2.653	46.47	99.5575	11029.3	-3.674
2.662	46.56	99.5546	11029	-3.616
2.670	46.66	99.5516	11028.7	-3.559
2.678	46.75	99.5486	11028.3	-3.501
2.687	46.85	99.5457	11028	-3.444
2.695	46.94	99.5427	11027.7	-3.386
2.703	47.04	99.5396	11027.3	-3.329
2.712	47.13	99.5366	11027	-3.272
2.720	47.22	99.5336	11026.7	-3.215
2.728	47.32	99.5305	11026.3	-3.158
2.737	47.41	99.5275	11026	-3.102
2.745	47.51	99.5244	11025.7	-3.046
2.753	47.60	99.5213	11025.3	-2.991
2.762	47.69	99.5182	11025	-2.935
2.770	47.79	99.5151	11024.6	-2.880
2.778	47.88	99.5120	11024.3	-2.825
2.787	47.97	99.5089	11023.9	-2.770
2.795	48.07	99.5058	11023.6	-2.715
2.803	48.16	99.5027	11023.2	-2.659
2.812	48.25	99.4995	11022.9	-2.603
2.820	48.35	99.4964	11022.5	-2.548
2.828	48.44	99.4932	11022.2	-2.492
2.837	48.53	99.4900	11021.8	-2.436
2.845	48.63	99.4868	11021.5	-2.381
2.853	48.72	99.4836	11021.1	-2.326
2.862	48.81	99.4804	11020.8	-2.270
2.870	48.90	99.4772	11020.4	-2.215
2.878	49.00	99.4739	11020.1	-2.160
2.887	49.09	99.4707	11019.7	-2.106
2.895	49.18	99.4674	11019.3	-2.051
2.903	49.27	99.4642	11019	-1.997
2.912	49.37	99.4609	11018.6	-1.943
2.920	49.46	99.4576	11018.3	-1.890
2.928	49.55	99.4543	11017.9	-1.836
2.937	49.64	99.4510	11017.5	-1.782
2.945	49.73	99.4477	11017.2	-1.728
2.953	49.83	99.4443	11016.8	-1.675
2.962	49.92	99.4410	11016.4	-1.622
2.970	50.01	99.4376	11016	-1.569
2.978	50.10	99.4343	11015.7	-1.516
2.987	50.19	99.4309	11015.3	-1.463
2.995	50.28	99.4275	11014.9	-1.411
3.003	50.37	99.4241	11014.5	-1.358
3.012	50.46	99.4207	11014.2	-1.306
3.020	50.55	99.4173	11013.8	-1.254
3.028	50.65	99.4139	11013.4	-1.203
3.037	50.74	99.4105	11013	-1.151
3.045	50.83	99.4070	11012.7	-1.100
3.053	50.92	99.4036	11012.3	-1.048
3.062	51.01	99.4001	11011.9	-0.996
3.070	51.10	99.3966	11011.5	-0.945
3.078	51.19	99.3932	11011.1	-0.893
3.087	51.28	99.3896	11010.7	-0.843
3.095	51.37	99.3862	11010.3	-0.791
3.103	51.46	99.3826	11009.9	-0.740
3.112	51.55	99.3791	11009.6	-0.689
3.120	51.64	99.3756	11009.2	-0.638
3.128	51.73	99.3720	11008.8	-0.587
3.137	51.82	99.3684	11008.4	-0.537
3.145	51.91	99.3649	11008	-0.487
3.153	52.00	99.3613	11007.6	-0.436
3.162	52.09	99.3577	11007.2	-0.386
3.170	52.18	99.3541	11006.8	-0.335
3.178	52.27	99.3505	11006.4	-0.285
3.187	52.36	99.3469	11006	-0.235
3.195	52.45	99.3433	11005.6	-0.184
3.203	52.54	99.3397	11005.2	-0.134
3.212	52.63	99.3360	11004.8	-0.084
3.220	52.72	99.3324	11004.4	-0.034
3.228	52.81	99.3287	11004	0.015
3.237	52.90	99.3250	11003.6	0.065
3.245	52.98	99.3214	11003.2	0.115
3.253	53.07	99.3177	11002.8	0.164
3.262	53.16	99.3139	11002.3	0.214
3.270	53.25	99.3102	11001.9	0.263
3.278	53.34	99.3065	11001.5	0.311
3.287	53.43	99.3028	11001.1	0.360
3.295	53.52	99.2991	11000.7	0.409
3.303	53.61	99.2953	11000.3	0.458
3.312	53.70	99.2916	10999.9	0.506
3.320	53.78	99.2878	10999.4	0.555
3.328	53.87	99.2841	10999	0.602
3.337	53.96	99.2803	10998.6	0.650
3.345	54.05	99.2765	10998.2	0.698
3.353	54.14	99.2727	10997.8	0.746
3.362	54.22	99.2690	10997.4	0.795
3.370	54.31	99.2652	10996.9	0.843
3.378	54.40	99.2613	10996.5	0.890
3.387	54.49	99.2575	10996.1	0.938
3.395	54.58	99.2537	10995.7	0.986
3.403	54.67	99.2499	10995.2	1.034
3.412	54.75	99.2461	10994.8	1.081
3.420	54.84	99.2422	10994.4	1.128
3.428	54.93	99.2384	10994	1.174
3.437	55.02	99.2345	10993.5	1.221
3.445	55.10	99.2307	10993.1	1.268
3.453	55.19	99.2268	10992.7	1.314
3.462	55.28	99.2229	10992.3	1.360
3.470	55.37	99.2190	10991.8	1.405
3.478	55.45	99.2151	10991.4	1.451
3.487	55.54	99.2112	10991	1.497
3.495	55.63	99.2073	10990.5	1.543
3.503	55.72	99.2033	10990.1	1.589
3.512	55.80	99.1994	10989.6	1.636
3.520	55.89	99.1954	10989.2	1.682
3.528	55.98	99.1915	10988.8	1.728
3.537	56.07	99.1875	10988.3	1.775
3.545	56.15	99.1835	10987.9	1.821
3.553	56.24	99.1796	10987.5	1.868
3.562	56.33	99.1756	10987	1.914
3.570	56.41	99.1716	10986.6	1.960
3.578	56.50	99.1676	10986.1	2.006
3.587	56.59	99.1635	10985.7	2.052
3.595	56.68	99.1595	10985.2	2.098
3.603	56.76	99.1555	10984.8	2.143
3.612	56.85	99.1515	10984.3	2.189
3.620	56.94	99.1475	10983.9	2.235
3.628	57.03	99.1434	10983.4	2.280
3.637	57.11	99.1394	10983	2.325
3.645	57.20	99.1353	10982.6	2.371
3.653	57.29	99.1313	10982.1	2.416
3.662	57.37	99.1272	10981.7	2.462
3.670	57.46	99.1231	10981.2	2.507
3.678	57.55	99.1190	10980.7	2.552
3.687	57.63	99.1150	10980.3	2.598
3.695	57.72	99.1109	10979.8	2.642
3.703	57.81	99.1068	10979.4	2.687
3.712	57.89	99.1027	10978.9	2.732
3.720	57.98	99.0986	10978.5	2.776
3.728	58.07	99.0945	10978	2.820
3.737	58.15	99.0903	10977.6	2.865
3.745	58.24	99.0862	10977.1	2.910
3.753	58.33	99.0821	10976.7	2.955
3.762	58.41	99.0780	10976.2	2.999
3.770	58.50	99.0738	10975.7	3.043
3.778	58.59	99.0697	10975.3	3.087
3.787	58.67	99.0655	10974.8	3.131
3.795	58.76	99.0614	10974.4	3.174
3.803	58.85	99.0572	10973.9	3.218
3.812	58.93	99.0531	10973.4	3.262
3.820	59.02	99.0489	10973	3.305
3.828	59.11	99.0447	10972.5	3.349
3.837	59.19	99.0405	10972	3.393
3.845	59.28	99.0363	10971.6	3.437
3.853	59.36	99.0322	10971.1	3.481
3.862	59.45	99.0280	10970.7	3.524
3.870	59.54	99.0238	10970.2	3.568
3.878	59.62	99.0196	10969.7	3.612
3.887	59.71	99.0154	10969.3	3.657
3.895	59.80	99.0112	10968.8	3.701
3.903	59.88	99.0070	10968.3	3.744
3.912	59.97	99.0027	10967.9	3.788
3.920	60.06	98.9985	10967.4	3.831
3.928	60.14	98.9943	10966.9	3.874
3.937	60.23	98.9901	10966.5	3.917
3.945	60.32	98.9859	10966	3.960
3.953	60.40	98.9816	10965.5	4.004
3.962	60.49	98.9774	10965.1	4.047
3.970	60.57	98.9732	10964.6	4.090
3.978	60.66	98.9689	10964.1	4.133
3.987	60.75	98.9647	10963.6	4.176
3.995	60.83	98.9604	10963.2	4.219
4.003	60.92	98.9562	10962.7	4.262
4.012	61.01	98.9519	10962.2	4.305
4.020	61.09	98.9476	10961.8	4.348
4.028	61.18	98.9434	10961.3	4.391
4.037	61.27	98.9391	10960.8	4.435
4.045	61.35	98.9349	10960.3	4.478
4.053	61.44	98.9306	10959.9	4.521
4.062	61.53	98.9263	10959.4	4.565
4.070	61.61	98.9221	10958.9	4.608
4.078	61.70	98.9178	10958.5	4.651
4.087	61.78	98.9135	10958	4.694
4.095	61.87	98.9092	10957.5	4.738
4.103	61.96	98.9049	10957	4.781
4.112	62.04	98.9006	10956.5	4.824
4.120	62.13	98.8963	10956.1	4.868
4.128	62.22	98.8920	10955.6	4.910
4.137	62.30	98.8877	10955.1	4.953
4.145	62.39	98.8834	10954.6	4.995
4.153	62.47	98.8791	10954.2	5.037
4.162	62.56	98.8748	10953.7	5.080
4.170	62.65	98.8705	10953.2	5.123
4.178	62.73	98.8662	10952.7	5.166
4.187	62.82	98.8619	10952.3	5.209
4.195	62.91	98.8576	10951.8	5.251
4.203	62.99	98.8533	10951.3	5.293
4.212	63.08	98.8490	10950.8	5.335
4.220	63.17	98.8447	10950.4	5.377
4.228	63.25	98.8403	10949.9	5.420
4.237	63.34	98.8360	10949.4	5.461
4.245	63.42	98.8317	10948.9	5.503
4.253	63.51	98.8273	10948.4	5.543
4.262	63.60	98.8230	10948	5.585
4.270	63.68	98.8187	10947.5	5.626
4.278	63.77	98.8143	10947	5.669
4.287	63.85	98.8100	10946.5	5.711
4.295	63.94	98.8057	10946	5.753
4.303	64.03	98.8013	10945.6	5.796
4.312	64.11	98.7970	10945.1	5.839
4.320	64.20	98.7927	10944.6	5.882
4.328	64.29	98.7883	10944.1	5.925
4.337	64.37	98.7840	10943.6	5.968
4.345	64.46	98.7797	10943.2	6.010
4.353	64.55	98.7754	10942.7	6.053
4.362	64.63	98.7710	10942.2	6.094
4.370	64.72	98.7667	10941.7	6.136
4.378	64.81	98.7624	10941.2	6.178
4.387	64.89	98.7581	10940.8	6.221
4.395	64.98	98.7538	10940.3	6.263
4.403	65.07	98.7494	10939.8	6.305
4.412	65.15	98.7451	10939.3	6.347
4.420	65.24	98.7408	10938.8	6.389
4.428	65.33	98.7365	10938.4	6.430
4.437	65.41	98.7322	10937.9	6.472
4.445	65.50	98.7278	10937.4	6.514
4.453	65.59	98.7235	10936.9	6.556
4.462	65.67	98.7192	10936.5	6.598
4.470	65.76	98.7149	10936	6.640
4.478	65.85	98.7106	10935.5	6.680
4.487	65.93	98.7062	10935	6.722
4.495	66.02	98.7019	10934.5	6.764
4.503	66.11	98.6976	10934.1	6.806
4.512	66.19	98.6933	10933.6	6.848
4.520	66.28	98.6890	10933.1	6.890
4.528	66.37	98.6846	10932.6	6.931
4.537	66.45	98.6803	10932.1	6.972
4.545	66.54	98.6760	10931.7	7.013
4.553	66.63	98.6717	10931.2	7.055
4.562	66.71	98.6673	10930.7	7.096
4.570	66.80	98.6630	10930.2	7.138
4.578	66.89	98.6587	10929.8	7.179
4.587	66.97	98.6544	10929.3	7.220
4.595	67.06	98.6501	10928.8	7.262
4.603	67.15	98.6458	10928.3	7.303
4.612	67.23	98.6415	10927.8	7.345
4.620	67.32	98.6372	10927.4	7.387
4.628	67.41	98.6329	10926.9	7.428
4.637	67.49	98.6287	10926.4	7.470
4.645	67.58	98.6244	10925.9	7.512
4.653	67.67	98.6201	10925.5	7.554
4.662	67.76	98.6158	10925	7.595
4.670	67.84	98.6116	10924.5	7.637
4.678	67.93	98.6073	10924.1	7.678
4.687	68.02	98.6031	10923.6	7.719
4.695	68.10	98.5988	10923.1	7.760
4.703	68.19	98.5946	10922.6	7.802
4.712	68.28	98.5903	10922.2	7.844
4.720	68.37	98.5861	10921.7	7.885
4.728	68.45	98.5818	10921.2	7.926
4.737	68.54	98.5775	10920.8	7.967
4.745	68.63	98.5733	10920.3	8.008
4.753	68.71	98.5691	10919.8	8.049
4.762	68.80	98.5648	10919.3	8.090
4.770	68.89	98.5606	10918.9	8.131
4.778	68.98	98.5563	10918.4	8.172
4.787	69.06	98.5521	10917.9	8.214
4.795	69.15	98.5478	10917.5	8.256
4.803	69.24	98.5436	10917	8.297
4.812	69.32	98.5394	10916.5	8.339
4.820	69.41	98.5352	10916.1	8.381
4.828	69.50	98.5310	10915.6	8.423
4.837	69.59	98.5267	10915.1	8.465
4.845	69.68	98.5225	10914.7	8.507
4.853	69.76	98.5183	10914.2	8.548
4.862	69.85	98.5141	10913.7	8.589
4.870	69.94	98.5099	10913.3	8.631
4.878	70.02	98.5057	10912.8	8.673
4.887	70.11	98.5016	10912.3	8.714
4.895	70.20	98.4974	10911.9	8.755
4.903	70.29	98.4932	10911.4	8.795
4.912	70.37	98.4890	10911	8.836
4.920	70.46	98.4848	10910.5	8.877
4.928	70.55	98.4807	10910	8.918
4.937	70.64	98.4765	10909.6	8.959
4.945	70.72	98.4724	10909.1	9.000
4.953	70.81	98.4682	10908.6	9.041
4.962	70.90	98.4641	10908.2	9.081
4.970	70.99	98.4599	10907.7	9.122
4.978	71.07	98.4558	10907.3	9.163
4.987	71.16	98.4517	10906.8	9.204
4.995	71.25	98.4475	10906.4	9.245
5.003	71.34	98.4434	10905.9	9.285
5.012	71.42	98.4393	10905.4	9.326
5.020	71.51	98.4352	10905	9.367
5.028	71.60	98.4311	10904.5	9.407
5.037	71.69	98.4270	10904.1	9.448
5.045	71.77	98.4229	10903.6	9.489
5.053	71.86	98.4188	10903.2	9.530
5.062	71.95	98.4147	10902.7	9.571
5.070	72.04	98.4106	10902.3	9.612
5.078	72.12	98.4065	10901.8	9.654
5.087	72.21	98.4024	10901.4	9.695
5.095	72.30	98.3984	10900.9	9.736
5.103	72.39	98.3943	10900.5	9.777
5.112	72.48	98.3903	10900	9.818
5.120	72.56	98.3862	10899.6	9.859
5.128	72.65	98.3822	10899.1	9.900
5.137	72.74	98.3782	10898.7	9.941
5.145	72.83	98.3741	10898.2	9.981
5.153	72.91	98.3701	10897.8	10.021
5.162	73.00	98.3661	10897.3	10.062
5.170	73.09	98.3621	10896.9	10.102
5.178	73.18	98.3581	10896.4	10.144
5.187	73.27	98.3541	10896	10.185
5.195	73.35	98.3501	10895.6	10.226
5.203	73.44	98.3461	10895.1	10.267
5.212	73.53	98.3421	10894.7	10.309
5.220	73.62	98.3381	10894.2	10.350
5.228	73.71	98.3341	10893.8	10.392
5.237	73.79	98.3302	10893.4	10.433
5.245	73.88	98.3262	10892.9	10.474
5.253	73.97	98.3222	10892.5	10.515
5.262	74.06	98.3183	10892	10.556
5.270	74.14	98.3143	10891.6	10.597
5.278	74.23	98.3103	10891.2	10.637
5.287	74.32	98.3064	10890.7	10.678
5.295	74.41	98.3025	10890.3	10.718
5.303	74.50	98.2986	10889.9	10.758
5.312	74.59	98.2947	10889.4	10.798
5.320	74.67	98.2907	10889	10.839
5.328	74.76	98.2868	10888.6	10.879
5.337	74.85	98.2830	10888.1	10.921
5.345	74.94	98.2791	10887.7	10.962
5.353	75.03	98.2752	10887.3	11.003
5.362	75.11	98.2713	10886.8	11.044
5.370	75.20	98.2674	10886.4	11.085
5.378	75.29	98.2636	10886	11.127
5.387	75.38	98.2597	10885.5	11.167
5.395	75.47	98.2558	10885.1	11.208
5.403	75.56	98.2520	10884.7	11.250
5.412	75.64	98.2482	10884.3	11.291
5.420	75.73	98.2443	10883.8	11.332
5.428	75.82	98.2405	10883.4	11.372
5.437	75.91	98.2367	10883	11.413
5.445	76.00	98.2329	10882.6	11.453
5.453	76.08	98.2291	10882.2	11.493
5.462	76.17	98.2253	10881.7	11.533
5.470	76.26	98.2216	10881.3	11.573
5.478	76.35	98.2178	10880.9	11.613
5.487	76.44	98.2140	10880.5	11.652
5.495	76.53	98.2103	10880.1	11.692
5.503	76.61	98.2065	10879.7	11.731
5.512	76.70	98.2028	10879.2	11.771
5.520	76.79	98.1991	10878.8	11.811
5.528	76.88	98.1953	10878.4	11.851
5.537	76.97	98.1916	10878	11.892
5.545	77.05	98.1879	10877.6	11.932
5.553	77.14	98.1842	10877.2	11.972
5.562	77.23	98.1805	10876.8	12.012
5.570	77.32	98.1768	10876.4	12.053
5.578	77.41	98.1731	10876	12.093
5.587	77.50	98.1694	10875.5	12.135
5.595	77.58	98.1657	10875.1	12.175
5.603	77.67	98.1621	10874.7	12.217
5.612	77.76	98.1584	10874.3	12.258
5.620	77.85	98.1548	10873.9	12.298
5.628	77.94	98.1511	10873.5	12.339
5.637	78.03	98.1475	10873.1	12.380
5.645	78.12	98.1439	10872.7	12.421
5.653	78.20	98.1403	10872.3	12.462
5.662	78.29	98.1367	10871.9	12.502
5.670	78.38	98.1331	10871.5	12.542
5.678	78.47	98.1295	10871.1	12.582
5.687	78.56	98.1259	10870.7	12.622
5.695	78.65	98.1223	10870.3	12.662
5.703	78.74	98.1188	10869.9	12.702
5.712	78.82	98.1152	10869.5	12.742
5.720	78.91	98.1117	10869.1	12.783
5.728	79.00	98.1081	10868.8	12.823
5.737	79.09	98.1046	10868.4	12.862
5.745	79.18	98.1011	10868	12.902
5.753	79.27	98.0975	10867.6	12.942
5.762	79.35	98.0940	10867.2	12.983
5.770	79.44	98.0906	10866.8	13.022
5.778	79.53	98.0871	10866.4	13.062
5.787	79.62	98.0836	10866	13.102
5.795	79.71	98.0801	10865.7	13.142
5.803	79.80	98.0767	10865.3	13.183
5.812	79.89	98.0732	10864.9	13.223
5.820	79.97	98.0698	10864.5	13.264
5.828	80.06	98.0664	10864.1	13.305
5.837	80.15	98.0629	10863.7	13.345
5.845	80.24	98.0595	10863.4	13.384
5.853	80.33	98.0561	10863	13.425
5.862	80.42	98.0527	10862.6	13.465
5.870	80.50	98.0493	10862.2	13.505
5.878	80.59	98.0460	10861.9	13.545
5.887	80.68	98.0426	10861.5	13.584
5.895	80.77	98.0393	10861.1	13.623
5.903	80.86	98.0359	10860.8	13.663
5.912	80.95	98.0326	10860.4	13.703
5.920	81.04	98.0292	10860	13.743
5.928	81.13	98.0259	10859.6	13.783
5.937	81.21	98.0226	10859.3	13.823
5.945	81.30	98.0193	10858.9	13.863
5.953	81.39	98.0160	10858.5	13.902
5.962	81.48	98.0127	10858.2	13.942
5.970	81.57	98.0094	10857.8	13.981
5.978	81.66	98.0061	10857.5	14.021
5.987	81.74	98.0029	10857.1	14.061
5.995	81.83	97.9996	10856.7	14.101
6.003	81.92	97.9963	10856.4	14.140
6.012	82.01	97.9931	10856	14.179
6.020	82.10	97.9899	10855.7	14.219
6.028	82.19	97.9866	10855.3	14.258
6.037	82.28	97.9834	10854.9	14.298
6.045	82.36	97.9802	10854.6	14.337
6.053	82.45	97.9770	10854.2	14.377
6.062	82.54	97.9739	10853.9	14.417
6.070	82.63	97.9707	10853.5	14.456
6.078	82.72	97.9675	10853.2	14.495
6.087	82.81	97.9644	10852.8	14.535
6.095	82.90	97.9613	10852.5	14.575
6.103	82.98	97.9581	10852.1	14.614
6.112	83.07	97.9550	10851.8	14.654
6.120	83.16	97.9519	10851.4	14.694
6.128	83.25	97.9488	10851.1	14.733
6.137	83.34	97.9457	10850.8	14.772
6.145	83.43	97.9426	10850.4	14.811
6.153	83.52	97.9395	10850.1	14.850
6.162	83.60	97.9364	10849.7	14.890
6.170	83.69	97.9333	10849.4	14.929
6.178	83.78	97.9303	10849.1	14.969
6.187	83.87	97.9272	10848.7	15.008
6.195	83.96	97.9242	10848.4	15.047
6.203	84.05	97.9212	10848	15.085
6.212	84.14	97.9181	10847.7	15.126
6.220	84.22	97.9151	10847.4	15.165
6.228	84.31	97.9121	10847	15.205
6.237	84.40	97.9092	10846.7	15.243
6.245	84.49	97.9062	10846.4	15.282
6.253	84.58	97.9032	10846.1	15.320
6.262	84.67	97.9003	10845.7	15.359
6.270	84.76	97.8974	10845.4	15.398
6.278	84.84	97.8944	10845.1	15.437
6.287	84.93	97.8915	10844.8	15.476
6.295	85.02	97.8886	10844.4	15.514
6.303	85.11	97.8857	10844.1	15.553
6.312	85.20	97.8828	10843.8	15.591
6.320	85.29	97.8799	10843.5	15.630
6.328	85.37	97.8771	10843.2	15.669
6.337	85.46	97.8742	10842.8	15.708
6.345	85.55	97.8713	10842.5	15.746
6.353	85.64	97.8685	10842.2	15.785
6.362	85.73	97.8656	10841.9	15.824
6.370	85.82	97.8628	10841.6	15.863
6.378	85.91	97.8600	10841.3	15.903
6.387	85.99	97.8572	10841	15.942
6.395	86.08	97.8544	10840.6	15.981
6.403	86.17	97.8516	10840.3	16.019
6.412	86.26	97.8488	10840	16.058
6.420	86.35	97.8460	10839.7	16.097
6.428	86.44	97.8433	10839.4	16.135
6.437	86.53	97.8405	10839.1	16.173
6.445	86.61	97.8378	10838.8	16.212
6.453	86.70	97.8350	10838.5	16.250
6.462	86.79	97.8323	10838.2	16.288
6.470	86.88	97.8296	10837.9	16.326
6.478	86.97	97.8269	10837.6	16.365
6.487	87.06	97.8242	10837.3	16.403
6.495	87.14	97.8215	10837	16.442
6.503	87.23	97.8188	10836.7	16.481
6.512	87.32	97.8161	10836.4	16.518
6.520	87.41	97.8135	10836.1	16.557
6.528	87.50	97.8108	10835.8	16.595
6.537	87.59	97.8082	10835.5	16.633
6.545	87.68	97.8056	10835.2	16.672
6.553	87.76	97.8030	10835	16.710
6.562	87.85	97.8004	10834.7	16.748
6.570	87.94	97.7978	10834.4	16.786
6.578	88.03	97.7952	10834.1	16.824
6.587	88.12	97.7926	10833.8	16.863
6.595	88.21	97.7901	10833.5	16.902
6.603	88.29	97.7875	10833.2	16.940
6.612	88.38	97.7849	10833	16.978
6.620	88.47	97.7824	10832.7	17.016
6.628	88.56	97.7798	10832.4	17.054
6.637	88.65	97.7773	10832.1	17.091
6.645	88.74	97.7748	10831.8	17.129
6.653	88.82	97.7723	10831.6	17.168
6.662	88.91	97.7699	10831.3	17.205
6.670	89.00	97.7674	10831	17.242
6.678	89.09	97.7649	10830.7	17.280
6.687	89.18	97.7625	10830.5	17.318
6.695	89.27	97.7600	10830.2	17.355
6.703	89.35	97.7576	10829.9	17.392
6.712	89.44	97.7552	10829.7	17.430
6.720	89.53	97.7528	10829.4	17.468
6.728	89.62	97.7504	10829.1	17.505
6.737	89.71	97.7480	10828.9	17.542
6.745	89.80	97.7456	10828.6	17.580
6.753	89.88	97.7433	10828.3	17.617
6.762	89.97	97.7409	10828.1	17.655
6.770	90.06	97.7386	10827.8	17.692
6.778	90.15	97.7362	10827.6	17.730
6.787	90.24	97.7339	10827.3	17.768
6.795	90.32	97.7316	10827	17.805
6.803	90.41	97.7292	10826.8	17.842
6.812	90.50	97.7269	10826.5	17.880
6.820	90.59	97.7246	10826.3	17.918
6.828	90.68	97.7224	10826	17.956
6.837	90.77	97.7201	10825.8	17.993
6.845	90.86	97.7179	10825.5	18.030
6.853	90.94	97.7156	10825.3	18.067
6.862	91.03	97.7134	10825	18.104
6.870	91.12	97.7112	10824.8	18.141
6.878	91.21	97.7090	10824.5	18.178
6.887	91.30	97.7068	10824.3	18.216
6.895	91.39	97.7046	10824.1	18.252
6.903	91.47	97.7024	10823.8	18.288
6.912	91.56	97.7002	10823.6	18.325
6.920	91.65	97.6980	10823.3	18.361
6.928	91.74	97.6959	10823.1	18.397
6.937	91.83	97.6937	10822.8	18.434
6.945	91.91	97.6915	10822.6	18.471
6.953	92.00	97.6894	10822.4	18.508
6.962	92.09	97.6873	10822.1	18.544
6.970	92.18	97.6852	10821.9	18.580
6.978	92.27	97.6830	10821.7	18.617
6.987	92.36	97.6809	10821.4	18.654
6.995	92.44	97.6789	10821.2	18.691
7.003	92.53	97.6768	10821	18.728
7.012	92.62	97.6747	10820.7	18.764
7.020	92.71	97.6727	10820.5	18.801
7.028	92.80	97.6706	10820.3	18.838
7.037	92.88	97.6686	10820.1	18.874
7.045	92.97	97.6666	10819.8	18.911
7.053	93.06	97.6646	10819.6	18.948
7.062	93.15	97.6626	10819.4	18.985
7.070	93.24	97.6606	10819.2	19.021
7.078	93.32	97.6586	10819	19.058
7.087	93.41	97.6566	10818.7	19.095
7.095	93.50	97.6547	10818.5	19.132
7.103	93.59	97.6527	10818.3	19.169
7.112	93.68	97.6508	10818.1	19.206
7.120	93.76	97.6489	10817.9	19.242
7.128	93.85	97.6470	10817.7	19.279
7.137	93.94	97.6451	10817.5	19.315
7.145	94.03	97.6432	10817.2	19.351
7.153	94.12	97.6413	10817	19.388
7.162	94.21	97.6394	10816.8	19.423
7.170	94.29	97.6376	10816.6	19.459
7.178	94.38	97.6357	10816.4	19.495
7.187	94.47	97.6339	10816.2	19.530
7.195	94.56	97.6320	10816	19.566
7.203	94.65	97.6302	10815.8	19.601
7.212	94.73	97.6284	10815.6	19.637
7.220	94.82	97.6265	10815.4	19.673
7.228	94.91	97.6247	10815.2	19.708
7.237	95.00	97.6229	10815	19.745
7.245	95.09	97.6211	10814.8	19.781
7.253	95.17	97.6194	10814.6	19.816
7.262	95.26	97.6176	10814.4	19.852
7.270	95.35	97.6158	10814.2	19.888
7.278	95.44	97.6141	10814	19.923
7.287	95.53	97.6123	10813.8	19.960
7.295	95.61	97.6106	10813.6	19.997
7.303	95.70	97.6089	10813.4	20.032
7.312	95.79	97.6071	10813.3	20.067
7.320	95.88	97.6054	10813.1	20.101
7.328	95.97	97.6037	10812.9	20.136
7.337	96.05	97.6021	10812.7	20.172
7.345	96.14	97.6004	10812.5	20.207
7.353	96.23	97.5987	10812.3	20.242
7.362	96.32	97.5971	10812.1	20.277
7.370	96.40	97.5954	10812	20.312
7.378	96.49	97.5938	10811.8	20.347
7.387	96.58	97.5922	10811.6	20.382
7.395	96.67	97.5906	10811.4	20.418
7.403	96.76	97.5890	10811.2	20.453
7.412	96.85	97.5874	10811.1	20.489
7.420	96.93	97.5858	10810.9	20.524
7.428	97.02	97.5842	10810.7	20.559
7.437	97.11	97.5826	10810.5	20.594
7.445	97.20	97.5811	10810.4	20.629
7.453	97.28	97.5795	10810.2	20.664
7.462	97.37	97.5780	10810	20.699
7.470	97.46	97.5764	10809.9	20.734
7.478	97.55	97.5749	10809.7	20.769
7.487	97.64	97.5734	10809.5	20.803
7.495	97.72	97.5719	10809.3	20.838
7.503	97.81	97.5704	10809.2	20.872
7.512	97.90	97.5689	10809	20.906
7.520	97.99	97.5674	10808.9	20.940
7.528	98.07	97.5659	10808.7	20.975
7.537	98.16	97.5644	10808.5	21.009
7.545	98.25	97.5630	10808.4	21.044
7.553	98.34	97.5615	10808.2	21.078
7.562	98.42	97.5601	10808	21.113
7.570	98.51	97.5586	10807.9	21.147
7.578	98.60	97.5572	10807.7	21.182
7.587	98.69	97.5558	10807.6	21.216
7.595	98.78	97.5544	10807.4	21.251
7.603	98.86	97.5530	10807.3	21.286
7.612	98.95	97.5516	10807.1	21.320
7.620	99.04	97.5503	10807	21.355
7.628	99.13	97.5489	10806.8	21.389
7.637	99.22	97.5476	10806.7	21.424
7.645	99.30	97.5462	10806.5	21.457
7.653	99.39	97.5449	10806.4	21.491
7.662	99.48	97.5436	10806.2	21.525
7.670	99.57	97.5423	10806.1	21.559
7.678	99.65	97.5410	10805.9	21.592
7.687	99.74	97.5397	10805.8	21.626
7.695	99.83	97.5384	10805.6	21.659
7.703	99.92	97.5371	10805.5	21.693
7.712	100.00	97.5358	10805.3	21.726
7.720	100.09	97.5345	10805.2	21.760
7.728	100.18	97.5332	10805.1	21.794
7.737	100.27	97.5320	10804.9	21.828
7.745	100.36	97.5307	10804.8	21.863
7.753	100.44	97.5295	10804.6	21.896
7.762	100.53	97.5282	10804.5	21.929
7.770	100.62	97.5270	10804.4	21.963
7.778	100.71	97.5258	10804.2	21.997
7.787	100.80	97.5246	10804.1	22.030
7.795	100.88	97.5233	10804	22.063
7.803	100.97	97.5221	10803.8	22.096
7.812	101.06	97.5210	10803.7	22.129
7.820	101.15	97.5198	10803.6	22.162
7.828	101.23	97.5186	10803.4	22.194
7.837	101.32	97.5174	10803.3	22.228
7.845	101.41	97.5163	10803.2	22.261
7.853	101.50	97.5151	10803.1	22.294
7.862	101.58	97.5140	10802.9	22.328
7.870	101.67	97.5128	10802.8	22.361
7.878	101.76	97.5117	10802.7	22.394
7.887	101.85	97.5106	10802.6	22.428
7.895	101.93	97.5095	10802.4	22.462
7.903	102.02	97.5084	10802.3	22.494
7.912	102.11	97.5073	10802.2	22.528
7.920	102.20	97.5062	10802.1	22.561
7.928	102.28	97.5051	10801.9	22.595
7.937	102.37	97.5040	10801.8	22.628
7.945	102.46	97.5030	10801.7	22.661
7.953	102.55	97.5019	10801.6	22.694
7.962	102.64	97.5008	10801.5	22.727
7.970	102.72	97.4998	10801.4	22.760
7.978	102.81	97.4988	10801.2	22.793
7.987	102.90	97.4977	10801.1	22.826
7.995	102.99	97.4967	10801	22.859
8.003	103.07	97.4957	10800.9	22.891
8.012	103.16	97.4947	10800.8	22.924
8.020	103.25	97.4937	10800.7	22.957
8.028	103.34	97.4927	10800.6	22.990
8.037	103.42	97.4917	10800.5	23.024
8.045	103.51	97.4907	10800.4	23.057
8.053	103.60	97.4897	10800.2	23.089
8.062	103.69	97.4888	10800.1	23.122
8.070	103.78	97.4878	10800	23.155
8.078	103.86	97.4869	10799.9	23.188
8.087	103.95	97.4859	10799.8	23.221
8.095	104.04	97.4850	10799.7	23.254
8.103	104.13	97.4841	10799.6	23.286
8.112	104.21	97.4832	10799.5	23.318
8.120	104.30	97.4823	10799.4	23.350
8.128	104.39	97.4814	10799.3	23.382
8.137	104.48	97.4805	10799.2	23.414
8.145	104.56	97.4796	10799.1	23.445
8.153	104.65	97.4787	10799	23.477
8.162	104.74	97.4778	10798.9	23.508
8.170	104.83	97.4769	10798.8	23.540
8.178	104.91	97.4761	10798.7	23.572
8.187	105.00	97.4752	10798.6	23.604
8.195	105.09	97.4744	10798.5	23.636
8.203	105.18	97.4735	10798.5	23.669
8.212	105.26	97.4727	10798.4	23.701
8.220	105.35	97.4719	10798.3	23.734
8.228	105.44	97.4710	10798.2	23.767
8.237	105.53	97.4702	10798.1	23.799
8.245	105.61	97.4694	10798	23.831
8.253	105.70	97.4686	10797.9	23.863
8.262	105.79	97.4678	10797.8	23.896
8.270	105.88	97.4670	10797.7	23.927
8.278	105.96	97.4662	10797.6	23.958
8.287	106.05	97.4655	10797.6	23.989
8.295	106.14	97.4647	10797.5	24.019
8.303	106.23	97.4639	10797.4	24.050
8.312	106.31	97.4631	10797.3	24.082
8.320	106.40	97.4624	10797.2	24.113
8.328	106.49	97.4616	10797.1	24.145
8.337	106.58	97.4609	10797.1	24.177
8.345	106.66	97.4601	10797	24.208
8.353	106.75	97.4594	10796.9	24.239
8.362	106.84	97.4586	10796.8	24.271
8.370	106.93	97.4579	10796.7	24.303
8.378	107.01	97.4572	10796.6	24.335
8.387	107.10	97.4565	10796.6	24.366
8.395	107.19	97.4558	10796.5	24.398
8.403	107.28	97.4551	10796.4	24.429
8.412	107.36	97.4544	10796.3	24.459
8.420	107.45	97.4537	10796.3	24.491
8.428	107.54	97.4530	10796.2	24.522
8.437	107.62	97.4523	10796.1	24.553
8.445	107.71	97.4517	10796	24.585
8.453	107.80	97.4510	10796	24.616
8.462	107.89	97.4504	10795.9	24.647
8.470	107.97	97.4497	10795.8	24.678
8.478	108.06	97.4491	10795.7	24.709
8.487	108.15	97.4485	10795.7	24.740
8.495	108.24	97.4479	10795.6	24.771
8.503	108.32	97.4472	10795.5	24.801
8.512	108.41	97.4466	10795.5	24.832
8.520	108.50	97.4460	10795.4	24.863
8.528	108.59	97.4454	10795.3	24.893
8.537	108.67	97.4448	10795.3	24.923
8.545	108.76	97.4443	10795.2	24.954
8.553	108.85	97.4437	10795.1	24.984
8.562	108.94	97.4431	10795.1	25.014
8.570	109.02	97.4425	10795	25.045
8.578	109.11	97.4420	10795	25.075
8.587	109.20	97.4414	10794.9	25.105
8.595	109.29	97.4409	10794.8	25.135
8.603	109.37	97.4403	10794.8	25.165
8.612	109.46	97.4397	10794.7	25.196

[step]
Isothermal 30.0 min
Time	Temperature	Weight	Weight	Heat Flow
min	°C	%	µg	mW
8.620	109.55	97.4392	10794.6	25.227
8.645	109.81	97.4376	10794.5	25.318
8.670	110.07	97.4361	10794.3	25.409
8.695	110.33	97.4346	10794.1	25.498
8.720	110.59	97.4331	10794	25.587
8.745	110.85	97.4316	10793.8	25.675
8.770	111.10	97.4302	10793.7	25.762
8.795	111.35	97.4289	10793.5	25.846
8.820	111.60	97.4277	10793.4	25.927
8.845	111.85	97.4265	10793.2	26.007
8.870	112.08	97.4255	10793.1	26.086
8.895	112.32	97.4245	10793	26.163
8.920	112.55	97.4236	10792.9	26.237
8.945	112.77	97.4228	10792.8	26.309
8.970	112.98	97.4221	10792.8	26.376
8.995	113.19	97.4215	10792.7	26.440
9.020	113.39	97.4209	10792.6	26.501
9.045	113.59	97.4205	10792.6	26.559
9.070	113.78	97.4201	10792.5	26.614
9.095	113.96	97.4198	10792.5	26.666
9.120	114.13	97.4195	10792.5	26.712
9.145	114.30	97.4193	10792.4	26.755
9.170	114.46	97.4191	10792.4	26.794
9.195	114.61	97.4190	10792.4	26.831
9.220	114.75	97.4189	10792.4	26.863
9.245	114.89	97.4189	10792.4	26.891
9.270	115.02	97.4190	10792.4	26.915
9.295	115.14	97.4191	10792.4	26.935
9.320	115.24	97.4192	10792.4	26.949
9.345	115.35	97.4194	10792.5	26.961
9.370	115.44	97.4196	10792.5	26.969
9.395	115.52	97.4199	10792.5	26.974
9.420	115.60	97.4202	10792.5	26.976
9.445	115.66	97.4206	10792.6	26.976
9.470	115.72	97.4209	10792.6	26.974
9.495	115.77	97.4213	10792.7	26.969
9.520	115.82	97.4216	10792.7	26.957
9.545	115.86	97.4219	10792.7	26.939
9.570	115.89	97.4223	10792.8	26.914
9.595	115.91	97.4226	10792.8	26.886
9.620	115.93	97.4230	10792.9	26.854
9.645	115.94	97.4233	10792.9	26.820
9.670	115.95	97.4236	10792.9	26.784
9.695	115.95	97.4239	10793	26.744
9.720	115.94	97.4242	10793	26.703
9.745	115.93	97.4246	10793	26.660
9.770	115.91	97.4249	10793.1	26.616
9.795	115.89	97.4252	10793.1	26.570
9.820	115.87	97.4255	10793.1	26.523
9.845	115.84	97.4258	10793.2	26.473
9.870	115.80	97.4261	10793.2	26.422
9.895	115.77	97.4263	10793.2	26.367
9.920	115.73	97.4265	10793.2	26.312
9.945	115.69	97.4268	10793.3	26.257
9.970	115.64	97.4269	10793.3	26.202
9.995	115.60	97.4270	10793.3	26.145
10.020	115.55	97.4271	10793.3	26.087
10.045	115.51	97.4272	10793.3	26.029
10.070	115.46	97.4272	10793.3	25.971
10.095	115.41	97.4272	10793.3	25.913
10.120	115.36	97.4272	10793.3	25.855
10.145	115.31	97.4272	10793.3	25.797
10.170	115.26	97.4271	10793.3	25.738
10.195	115.21	97.4270	10793.3	25.680
10.220	115.16	97.4269	10793.3	25.623
10.245	115.11	97.4267	10793.3	25.566
10.270	115.06	97.4266	10793.2	25.511
10.295	115.01	97.4264	10793.2	25.455
10.320	114.96	97.4261	10793.2	25.400
10.345	114.92	97.4259	10793.2	25.348
10.370	114.87	97.4257	10793.2	25.296
10.395	114.82	97.4255	10793.1	25.246
10.420	114.78	97.4253	10793.1	25.196
10.445	114.73	97.4251	10793.1	25.146
10.470	114.69	97.4250	10793.1	25.099
10.495	114.65	97.4248	10793	25.053
10.520	114.60	97.4245	10793	25.008
10.545	114.56	97.4242	10793	24.963
10.570	114.52	97.4240	10793	24.919
10.595	114.49	97.4237	10792.9	24.878
10.620	114.45	97.4234	10792.9	24.838
10.645	114.41	97.4231	10792.9	24.799
10.670	114.38	97.4228	10792.8	24.762
10.695	114.35	97.4225	10792.8	24.726
10.720	114.32	97.4222	10792.8	24.691
10.745	114.29	97.4219	10792.7	24.658
10.770	114.26	97.4216	10792.7	24.627
10.795	114.23	97.4213	10792.7	24.599
10.820	114.21	97.4210	10792.6	24.572
10.845	114.19	97.4207	10792.6	24.546
10.870	114.17	97.4204	10792.6	24.519
10.895	114.15	97.4201	10792.5	24.493
10.920	114.13	97.4198	10792.5	24.468
10.945	114.11	97.4195	10792.5	24.447
10.970	114.10	97.4192	10792.4	24.427
10.995	114.09	97.4190	10792.4	24.410
11.020	114.08	97.4187	10792.4	24.392
11.045	114.07	97.4184	10792.3	24.376
11.070	114.06	97.4181	10792.3	24.362
11.095	114.05	97.4178	10792.3	24.350
11.120	114.05	97.4175	10792.2	24.338
11.145	114.04	97.4172	10792.2	24.328
11.170	114.04	97.4169	10792.2	24.318
11.195	114.04	97.4167	10792.2	24.310
[...]
224.503	951.45	-2.6141	-289.5972	105.987
224.528	951.45	-2.6141	-289.6006	105.990
224.553	951.45	-2.6142	-289.6057	105.992
224.578	951.45	-2.6142	-289.6099	105.993
224.603	951.45	-2.6142	-289.6138	105.995
224.628	951.45	-2.6143	-289.6170	105.996
224.653	951.45	-2.6143	-289.6196	105.997
224.678	951.45	-2.6143	-289.6257	105.998
224.703	951.45	-2.6144	-289.6329	106.001
224.728	951.45	-2.6145	-289.6423	106.004
224.753	951.45	-2.6146	-289.6506	106.007
224.778	951.45	-2.6146	-289.6573	106.011
224.803	951.45	-2.6147	-289.6632	106.015
224.828	951.45	-2.6147	-289.6680	106.019
224.853	951.45	-2.6148	-289.6721	106.021
224.878	951.45	-2.6148	-289.6750	106.023
224.903	951.45	-2.6148	-289.6775	106.025
224.928	951.45	-2.6148	-289.6819	106.027
224.953	951.45	-2.6149	-289.6893	106.028
224.978	951.45	-2.6150	-289.6986	106.029
225.003	951.45	-2.6151	-289.7102	106.030
225.028	951.45	-2.6152	-289.7211	106.030
225.053	951.45	-2.6153	-289.7309	106.032
225.078	951.45	-2.6153	-289.7360	106.034
225.103	951.45	-2.6154	-289.7403	106.035
225.128	951.45	-2.6154	-289.7428	106.036
225.153	951.45	-2.6154	-289.7462	106.037
225.178	951.45	-2.6155	-289.7486	106.037
225.203	951.45	-2.6155	-289.7530	106.040
225.228	951.45	-2.6155	-289.7572	106.043
225.253	951.45	-2.6156	-289.7607	106.046
225.278	951.45	-2.6156	-289.7624	106.048
225.303	951.45	-2.6156	-289.7632	106.052
225.328	951.45	-2.6156	-289.7632	106.056
225.353	951.45	-2.6156	-289.7626	106.059
225.378	951.45	-2.6156	-289.7620	106.062
225.403	951.45	-2.6156	-289.7646	106.065
225.428	951.45	-2.6156	-289.7685	106.068
225.453	951.45	-2.6157	-289.7758	106.071
225.478	951.45	-2.6158	-289.7824	106.074
225.503	951.45	-2.6158	-289.7922	106.077
225.528	951.45	-2.6159	-289.8009	106.080
225.553	951.45	-2.6160	-289.8114	106.082
225.578	951.45	-2.6161	-289.8211	106.084
225.603	951.45	-2.6162	-289.8286	106.086
225.628	951.45	-2.6162	-289.8360	106.089
225.653	951.45	-2.6163	-289.8411	106.091
225.678	951.45	-2.6163	-289.8468	106.094
225.703	951.45	-2.6164	-289.8515	106.098
225.728	951.45	-2.6164	-289.8547	106.102
225.753	951.45	-2.6164	-289.8574	106.104
225.778	951.45	-2.6165	-289.8618	106.105
225.803	951.45	-2.6165	-289.8678	106.105
225.828	951.45	-2.6166	-289.8741	106.107
225.853	951.45	-2.6167	-289.8816	106.109
225.878	951.45	-2.6167	-289.8877	106.112
225.903	951.45	-2.6168	-289.8938	106.115
225.928	951.45	-2.6168	-289.8979	106.118
225.953	951.45	-2.6168	-289.9011	106.120
225.978	951.45	-2.6169	-289.9076	106.122
226.003	951.45	-2.6169	-289.9145	106.123
226.028	951.45	-2.6170	-289.9200	106.125
226.053	951.45	-2.6170	-289.9236	106.127
226.078	951.45	-2.6170	-289.9249	106.130
226.103	951.45	-2.6171	-289.9286	106.132
226.128	951.45	-2.6171	-289.9315	106.134
226.153	951.45	-2.6171	-289.9340	106.136
226.178	951.45	-2.6171	-289.9362	106.138
226.203	951.45	-2.6172	-289.9379	106.140
226.228	951.45	-2.6172	-289.9409	106.142
226.253	951.45	-2.6172	-289.9442	106.143
226.278	951.45	-2.6172	-289.9469	106.145
226.303	951.45	-2.6173	-289.9492	106.148
226.328	951.45	-2.6173	-289.9510	106.151
226.353	951.45	-2.6173	-289.9544	106.152
226.378	951.45	-2.6173	-289.9573	106.153
226.403	951.45	-2.6174	-289.9603	106.153
226.428	951.45	-2.6174	-289.9611	106.154
226.453	951.45	-2.6174	-289.9621	106.155
226.478	951.45	-2.6174	-289.9665	106.157
226.503	951.45	-2.6174	-289.9699	106.159
226.528	951.45	-2.6175	-289.9743	106.160
226.553	951.45	-2.6175	-289.9762	106.161
226.578	951.45	-2.6175	-289.9806	106.160
226.603	951.45	-2.6176	-289.9875	106.160
226.628	951.45	-2.6177	-289.9955	106.161
226.653	951.45	-2.6178	-290.0035	106.163
226.678	951.45	-2.6178	-290.0110	106.166
226.703	951.45	-2.6179	-290.0192	106.169
226.728	951.45	-2.6180	-290.0265	106.171
226.753	951.45	-2.6180	-290.0327	106.173
226.778	951.45	-2.6181	-290.0374	106.174
226.803	951.45	-2.6181	-290.0430	106.174
226.828	951.45	-2.6182	-290.0510	106.174
226.853	951.45	-2.6183	-290.0607	106.175
226.878	951.45	-2.6184	-290.0712	106.177
226.903	951.45	-2.6184	-290.0794	106.180
226.928	951.45	-2.6185	-290.0871	106.184
226.953	951.45	-2.6186	-290.0948	106.186
226.978	951.45	-2.6187	-290.1033	106.187
227.003	951.45	-2.6187	-290.1104	106.188
227.028	951.45	-2.6188	-290.1169	106.190
227.053	951.45	-2.6188	-290.1222	106.194
227.078	951.45	-2.6189	-290.1259	106.198
227.103	951.45	-2.6189	-290.1274	106.202
227.128	951.45	-2.6189	-290.1286	106.204
227.153	951.45	-2.6189	-290.1295	106.207
227.178	951.45	-2.6189	-290.1330	106.209
227.203	951.45	-2.6190	-290.1376	106.211
227.228	951.45	-2.6190	-290.1427	106.214
227.253	951.45	-2.6191	-290.1480	106.217
227.278	951.45	-2.6191	-290.1547	106.220
227.303	951.46	-2.6192	-290.1624	106.223
227.328	951.46	-2.6193	-290.1721	106.225
227.353	951.46	-2.6194	-290.1818	106.226
227.378	951.46	-2.6194	-290.1882	106.226
227.403	951.46	-2.6195	-290.1944	106.226
227.428	951.46	-2.6195	-290.2003	106.227
227.453	951.46	-2.6196	-290.2090	106.229
227.478	951.46	-2.6197	-290.2193	106.232
227.503	951.46	-2.6198	-290.2290	106.234
227.528	951.46	-2.6199	-290.2376	106.237
227.553	951.46	-2.6199	-290.2435	106.239
227.578	951.46	-2.6200	-290.2478	106.241
227.603	951.46	-2.6200	-290.2521	106.244
227.628	951.46	-2.6200	-290.2557	106.245
227.653	951.46	-2.6201	-290.2597	106.246
227.678	951.46	-2.6201	-290.2623	106.247
227.703	951.46	-2.6201	-290.2661	106.248
227.728	951.46	-2.6202	-290.2705	106.249
227.753	951.46	-2.6202	-290.2745	106.251
227.778	951.46	-2.6202	-290.2789	106.253
227.803	951.46	-2.6203	-290.2812	106.257
227.828	951.46	-2.6203	-290.2829	106.259
227.853	951.46	-2.6203	-290.2835	106.261
227.878	951.46	-2.6203	-290.2858	106.263
227.903	951.46	-2.6203	-290.2911	106.265
227.928	951.46	-2.6204	-290.3005	106.267
227.953	951.46	-2.6205	-290.3103	106.269
227.978	951.46	-2.6206	-290.3199	106.272
228.003	951.46	-2.6207	-290.3289	106.275
228.028	951.46	-2.6207	-290.3354	106.278
228.053	951.46	-2.6208	-290.3403	106.281
228.078	951.46	-2.6208	-290.3442	106.284
228.103	951.46	-2.6209	-290.3493	106.287
228.128	951.46	-2.6209	-290.3546	106.291
228.153	951.46	-2.6210	-290.3610	106.294
228.178	951.46	-2.6210	-290.3656	106.298
228.203	951.46	-2.6211	-290.3730	106.301
228.228	951.46	-2.6212	-290.3814	106.303
228.253	951.46	-2.6213	-290.3923	106.307
228.278	951.46	-2.6214	-290.4022	106.309
228.303	951.46	-2.6214	-290.4096	106.312
228.328	951.46	-2.6215	-290.4162	106.314
228.353	951.46	-2.6215	-290.4224	106.317
228.378	951.46	-2.6216	-290.4298	106.322
228.403	951.46	-2.6217	-290.4367	106.327
228.428	951.46	-2.6217	-290.4418	106.332
228.453	951.46	-2.6217	-290.4459	106.336
228.478	951.46	-2.6218	-290.4478	106.339
228.503	951.46	-2.6218	-290.4476	106.341
228.528	951.46	-2.6218	-290.4490	106.341
228.553	951.46	-2.6218	-290.4519	106.340
228.578	951.46	-2.6218	-290.4560	106.342
228.603	951.46	-2.6219	-290.4598	106.344
228.628	951.46	-2.6219	-290.4604	106.346
228.653	951.46	-2.6219	-290.4608	106.348
228.678	951.46	-2.6219	-290.4600	106.348
228.703	951.46	-2.6219	-290.4603	106.349
228.728	951.46	-2.6219	-290.4624	106.349
228.753	951.46	-2.6219	-290.4664	106.349
228.778	951.46	-2.6220	-290.4700	106.349
228.803	951.46	-2.6220	-290.4729	106.350
228.828	951.46	-2.6220	-290.4739	106.351
228.853	951.46	-2.6220	-290.4760	106.352
228.878	951.46	-2.6221	-290.4799	106.354
228.903	951.46	-2.6221	-290.4839	106.354
228.928	951.46	-2.6221	-290.4894	106.357
228.953	951.46	-2.6222	-290.4942	106.360
228.978	951.46	-2.6222	-290.4980	106.364
229.003	951.46	-2.6222	-290.5002	106.367
229.028	951.46	-2.6222	-290.5005	106.370
229.053	951.46	-2.6223	-290.5027	106.372
229.078	951.46	-2.6223	-290.5077	106.375
229.103	951.46	-2.6224	-290.5161	106.377
229.128	951.46	-2.6224	-290.5228	106.379
229.153	951.46	-2.6225	-290.5286	106.381
229.178	951.46	-2.6225	-290.5322	106.382
229.203	951.46	-2.6226	-290.5358	106.385
229.228	951.46	-2.6226	-290.5395	106.388
229.253	951.46	-2.6226	-290.5425	106.391
229.278	951.46	-2.6226	-290.5445	106.394
229.303	951.46	-2.6227	-290.5465	106.396
229.328	951.46	-2.6227	-290.5498	106.398
229.353	951.46	-2.6227	-290.5565	106.400
229.378	951.46	-2.6228	-290.5616	106.403
229.403	951.46	-2.6228	-290.5657	106.406
229.428	951.46	-2.6228	-290.5660	106.409
229.453	951.46	-2.6228	-290.5649	106.412
229.478	951.46	-2.6228	-290.5633	106.415
229.503	951.46	-2.6228	-290.5641	106.418
229.528	951.46	-2.6228	-290.5676	106.420
229.553	951.46	-2.6229	-290.5717	106.422
229.578	951.46	-2.6229	-290.5740	106.424
229.603	951.46	-2.6229	-290.5743	106.427
229.628	951.46	-2.6229	-290.5757	106.430
229.653	951.46	-2.6229	-290.5786	106.432
229.678	951.46	-2.6230	-290.5829	106.434
229.703	951.46	-2.6230	-290.5873	106.436
229.728	951.46	-2.6231	-290.5908	106.437
229.753	951.46	-2.6231	-290.5952	106.438
229.778	951.46	-2.6231	-290.5993	106.440
229.803	951.46	-2.6232	-290.6028	106.444
229.828	951.46	-2.6232	-290.6049	106.447
229.853	951.46	-2.6232	-290.6053	106.449
229.878	951.46	-2.6232	-290.6057	106.449
229.903	951.46	-2.6232	-290.6066	106.450
229.928	951.46	-2.6232	-290.6103	106.453
229.953	951.46	-2.6233	-290.6160	106.456
229.978	951.46	-2.6233	-290.6233	106.460
230.003	951.46	-2.6234	-290.6325	106.462
230.028	951.46	-2.6235	-290.6411	106.465
230.053	951.46	-2.6236	-290.6492	106.467
230.078	951.46	-2.6236	-290.6528	106.469
230.103	951.46	-2.6236	-290.6535	106.471
230.128	951.46	-2.6236	-290.6563	106.474
230.153	951.46	-2.6237	-290.6615	106.476
230.178	951.46	-2.6237	-290.6673	106.477
230.203	951.46	-2.6238	-290.6710	106.478
230.228	951.46	-2.6238	-290.6749	106.479
230.253	951.46	-2.6239	-290.6826	106.481
230.278	951.46	-2.6240	-290.6937	106.484
230.303	951.46	-2.6241	-290.7040	106.487
230.328	951.46	-2.6242	-290.7141	106.489
230.353	951.46	-2.6243	-290.7249	106.491
230.378	951.46	-2.6244	-290.7394	106.493
230.403	951.46	-2.6245	-290.7543	106.496
230.428	951.46	-2.6246	-290.7676	106.497
230.453	951.46	-2.6247	-290.7782	106.499
230.478	951.46	-2.6248	-290.7845	106.501
230.503	951.46	-2.6249	-290.7909	106.503
230.528	951.46	-2.6249	-290.7960	106.505
230.553	951.46	-2.6249	-290.7994	106.507
230.578	951.46	-2.6250	-290.8027	106.509
230.603	951.46	-2.6250	-290.8072	106.511
230.628	951.46	-2.6251	-290.8146	106.514
230.653	951.46	-2.6252	-290.8233	106.517
230.678	951.46	-2.6252	-290.8315	106.518
230.703	951.46	-2.6253	-290.8372	106.519
230.728	951.46	-2.6253	-290.8428	106.520
230.753	951.46	-2.6254	-290.8454	106.521
230.778	951.46	-2.6254	-290.8461	106.521
230.803	951.46	-2.6253	-290.8449	106.522
230.828	951.46	-2.6253	-290.8424	106.522
230.853	951.46	-2.6253	-290.8429	106.523
230.878	951.46	-2.6254	-290.8481	106.524
230.903	951.46	-2.6254	-290.8552	106.525
230.928	951.46	-2.6255	-290.8620	106.526
230.953	951.46	-2.6255	-290.8659	106.528
230.978	951.46	-2.6256	-290.8707	106.530
231.003	951.46	-2.6256	-290.8745	106.532
231.028	951.46	-2.6256	-290.8760	106.534
231.053	951.46	-2.6256	-290.8760	106.537
231.078	951.46	-2.6256	-290.8779	106.540
231.103	951.46	-2.6257	-290.8821	106.544
231.128	951.46	-2.6257	-290.8866	106.545
231.153	951.46	-2.6258	-290.8906	106.548
231.178	951.46	-2.6258	-290.8935	106.550
231.203	951.46	-2.6258	-290.8977	106.553
231.228	951.46	-2.6258	-290.9004	106.555
231.253	951.46	-2.6259	-290.9043	106.558
231.278	951.46	-2.6259	-290.9064	106.560
231.303	951.46	-2.6259	-290.9088	106.562
231.328	951.46	-2.6259	-290.9111	106.565
231.353	951.46	-2.6260	-290.9132	106.568
231.378	951.46	-2.6260	-290.9161	106.570
231.403	951.46	-2.6260	-290.9186	106.572
231.428	951.46	-2.6260	-290.9216	106.573
231.453	951.46	-2.6261	-290.9251	106.574
231.478	951.46	-2.6261	-290.9285	106.574
231.503	951.46	-2.6261	-290.9338	106.575
231.528	951.46	-2.6262	-290.9404	106.576
231.553	951.46	-2.6263	-290.9493	106.578
231.578	951.46	-2.6264	-290.9593	106.579
231.603	951.46	-2.6265	-290.9676	106.581
231.628	951.46	-2.6265	-290.9734	106.583
231.653	951.46	-2.6265	-290.9764	106.585
231.678	951.46	-2.6266	-290.9786	106.586
231.703	951.46	-2.6266	-290.9802	106.588
231.728	951.46	-2.6266	-290.9820	106.591
231.753	951.46	-2.6266	-290.9845	106.594
231.778	951.46	-2.6267	-290.9898	106.597
231.803	951.46	-2.6267	-290.9964	106.602
231.828	951.46	-2.6268	-291.0025	106.605
231.853	951.47	-2.6268	-291.0083	106.608
231.878	951.47	-2.6269	-291.0137	106.609
231.903	951.46	-2.6269	-291.0191	106.610
231.928	951.46	-2.6270	-291.0243	106.611
231.953	951.46	-2.6270	-291.0293	106.612
231.978	951.46	-2.6270	-291.0325	106.613
232.003	951.47	-2.6271	-291.0359	106.614
232.028	951.47	-2.6271	-291.0416	106.614
232.053	951.47	-2.6272	-291.0487	106.614
232.078	951.47	-2.6272	-291.0557	106.615
232.103	951.47	-2.6273	-291.0626	106.616
232.128	951.46	-2.6274	-291.0688	106.617
232.153	951.46	-2.6274	-291.0728	106.618
232.178	951.46	-2.6274	-291.0759	106.619
232.203	951.46	-2.6275	-291.0789	106.620
232.228	951.46	-2.6275	-291.0826	106.623
232.253	951.46	-2.6275	-291.0871	106.627
232.278	951.46	-2.6276	-291.0915	106.631
232.303	951.46	-2.6276	-291.0978	106.634
232.328	951.46	-2.6277	-291.1058	106.636
232.353	951.46	-2.6278	-291.1133	106.639
232.378	951.46	-2.6278	-291.1199	106.641
232.403	951.46	-2.6279	-291.1258	106.643
232.428	951.47	-2.6279	-291.1310	106.645
232.453	951.47	-2.6280	-291.1364	106.646
232.478	951.47	-2.6280	-291.1405	106.648
232.503	951.47	-2.6281	-291.1455	106.649
232.528	951.47	-2.6281	-291.1502	106.649
232.553	951.47	-2.6281	-291.1542	106.646
232.578	951.47	-2.6282	-291.1561	106.644
232.603	951.47	-2.6282	-291.1600	106.643
232.628	951.47	-2.6282	-291.1640	106.642
232.653	951.47	-2.6283	-291.1676	106.642
232.678	951.47	-2.6283	-291.1708	106.642
232.703	951.47	-2.6283	-291.1738	106.642
232.728	951.46	-2.6284	-291.1778	106.642
232.753	951.46	-2.6284	-291.1830	106.642
232.778	951.46	-2.6284	-291.1862	106.643
232.803	951.47	-2.6285	-291.1901	106.645
232.828	951.46	-2.6285	-291.1929	106.645
232.853	951.46	-2.6285	-291.1958	106.646
232.878	951.46	-2.6285	-291.1979	106.647
232.903	951.46	-2.6286	-291.2022	106.651
232.928	951.46	-2.6286	-291.2079	106.655
232.953	951.46	-2.6287	-291.2130	106.658
232.978	951.46	-2.6287	-291.2164	106.659
233.003	951.46	-2.6287	-291.2178	106.661
233.028	951.47	-2.6287	-291.2198	106.662
233.053	951.47	-2.6288	-291.2232	106.664
233.078	951.47	-2.6288	-291.2278	106.668
233.103	951.47	-2.6289	-291.2333	106.671
233.128	951.47	-2.6289	-291.2400	106.675
233.153	951.47	-2.6290	-291.2471	106.678
233.178	951.46	-2.6290	-291.2543	106.680
233.203	951.46	-2.6291	-291.2601	106.682
233.228	951.46	-2.6292	-291.2665	106.682
233.253	951.46	-2.6292	-291.2738	106.683
233.278	951.46	-2.6293	-291.2801	106.685
233.303	951.47	-2.6293	-291.2856	106.687
233.328	951.47	-2.6294	-291.2890	106.688
233.353	951.47	-2.6294	-291.2930	106.690
233.378	951.47	-2.6294	-291.2961	106.692
233.403	951.47	-2.6294	-291.2974	106.694
233.428	951.47	-2.6294	-291.2942	106.696
233.453	951.47	-2.6294	-291.2901	106.697
233.478	951.47	-2.6293	-291.2869	106.696
233.503	951.47	-2.6293	-291.2871	106.696
233.528	951.47	-2.6294	-291.2892	106.696
233.553	951.47	-2.6294	-291.2915	106.698
233.578	951.47	-2.6294	-291.2941	106.700
233.603	951.47	-2.6294	-291.2987	106.703
233.628	951.47	-2.6295	-291.3037	106.705
233.653	951.47	-2.6296	-291.3109	106.706
233.678	951.47	-2.6296	-291.3180	106.707
233.703	951.47	-2.6297	-291.3259	106.707
233.728	951.47	-2.6297	-291.3313	106.708
233.753	951.47	-2.6298	-291.3361	106.709
233.778	951.47	-2.6298	-291.3395	106.710
233.803	951.47	-2.6298	-291.3426	106.711
233.828	951.47	-2.6299	-291.3446	106.710
233.853	951.47	-2.6299	-291.3469	106.710
233.878	951.47	-2.6299	-291.3503	106.709
233.903	951.47	-2.6300	-291.3555	106.710
233.928	951.47	-2.6300	-291.3600	106.712
233.953	951.47	-2.6300	-291.3622	106.713
233.978	951.47	-2.6300	-291.3645	106.714
234.003	951.47	-2.6301	-291.3678	106.715
234.028	951.47	-2.6301	-291.3750	106.716
234.053	951.47	-2.6302	-291.3814	106.717
234.078	951.47	-2.6302	-291.3868	106.718
234.103	951.47	-2.6303	-291.3928	106.720
234.128	951.47	-2.6304	-291.4010	106.720
234.153	951.47	-2.6305	-291.4110	106.721
234.178	951.47	-2.6305	-291.4212	106.723
234.203	951.47	-2.6306	-291.4313	106.725
234.228	951.47	-2.6307	-291.4415	106.728
234.253	951.47	-2.6308	-291.4491	106.731
234.278	951.47	-2.6309	-291.4549	106.733
234.303	951.47	-2.6309	-291.4591	106.736
234.328	951.47	-2.6309	-291.4635	106.739
234.353	951.47	-2.6310	-291.4675	106.741
234.378	951.47	-2.6310	-291.4729	106.742
234.403	951.47	-2.6311	-291.4787	106.742
234.428	951.47	-2.6311	-291.4852	106.742
234.453	951.47	-2.6312	-291.4910	106.742
234.478	951.47	-2.6312	-291.4942	106.743
234.503	951.47	-2.6312	-291.4960	106.743
234.528	951.47	-2.6312	-291.4968	106.744
234.553	951.47	-2.6312	-291.4984	106.744
234.578	951.47	-2.6313	-291.5024	106.745
234.603	951.47	-2.6313	-291.5079	106.746
234.628	951.47	-2.6314	-291.5123	106.747
234.653	951.47	-2.6314	-291.5156	106.749
234.678	951.47	-2.6314	-291.5172	106.751
234.703	951.47	-2.6314	-291.5209	106.753
234.728	951.47	-2.6315	-291.5255	106.755
234.753	951.47	-2.6315	-291.5311	106.756
234.778	951.47	-2.6316	-291.5352	106.756
234.803	951.47	-2.6316	-291.5395	106.758
234.828	951.47	-2.6316	-291.5429	106.758
234.853	951.47	-2.6317	-291.5447	106.759
234.878	951.47	-2.6317	-291.5467	106.760
234.903	951.47	-2.6317	-291.5492	106.760
234.928	951.47	-2.6317	-291.5526	106.762
234.953	951.47	-2.6318	-291.5560	106.763
234.978	951.47	-2.6318	-291.5604	106.765
235.003	951.47	-2.6318	-291.5645	106.766
235.028	951.47	-2.6319	-291.5689	106.768
235.053	951.47	-2.6319	-291.5727	106.770
235.078	951.47	-2.6319	-291.5759	106.773
235.103	951.47	-2.6320	-291.5780	106.775
235.128	951.47	-2.6320	-291.5795	106.776
235.153	951.47	-2.6320	-291.5791	106.776
235.178	951.47	-2.6320	-291.5765	106.778
235.203	951.47	-2.6319	-291.5753	106.780
235.228	951.47	-2.6320	-291.5775	106.784
235.253	951.47	-2.6320	-291.5816	106.787
235.278	951.47	-2.6320	-291.5874	106.789
235.303	951.47	-2.6321	-291.5921	106.791
235.328	951.47	-2.6321	-291.5962	106.794
235.353	951.47	-2.6322	-291.6006	106.796
235.378	951.47	-2.6322	-291.6024	106.799
235.403	951.47	-2.6322	-291.6054	106.801
235.428	951.47	-2.6322	-291.6063	106.803
235.453	951.47	-2.6322	-291.6051	106.805
235.478	951.47	-2.6322	-291.6049	106.806
235.503	951.47	-2.6322	-291.6054	106.807
235.528	951.47	-2.6322	-291.6084	106.808
235.553	951.47	-2.6323	-291.6140	106.809
235.578	951.47	-2.6323	-291.6192	106.808
235.603	951.47	-2.6324	-291.6254	106.807
235.628	951.47	-2.6325	-291.6321	106.807
235.653	951.47	-2.6325	-291.6371	106.806
235.678	951.47	-2.6326	-291.6437	106.805
235.703	951.47	-2.6326	-291.6496	106.804
235.728	951.47	-2.6327	-291.6578	106.804
235.753	951.47	-2.6328	-291.6655	106.802
235.778	951.47	-2.6328	-291.6709	106.802
235.803	951.47	-2.6328	-291.6745	106.803
235.828	951.47	-2.6329	-291.6806	106.807
235.853	951.47	-2.6330	-291.6883	106.811
235.878	951.47	-2.6330	-291.6976	106.815
235.903	951.47	-2.6331	-291.7068	106.816
235.928	951.47	-2.6332	-291.7151	106.817
235.953	951.47	-2.6332	-291.7204	106.818
235.978	951.47	-2.6333	-291.7245	106.821
236.003	951.47	-2.6333	-291.7266	106.824
236.028	951.47	-2.6333	-291.7281	106.827
236.053	951.47	-2.6333	-291.7287	106.830
236.078	951.47	-2.6333	-291.7293	106.833
236.103	951.47	-2.6334	-291.7334	106.836
236.128	951.47	-2.6334	-291.7397	106.839
236.153	951.47	-2.6335	-291.7473	106.842
236.178	951.47	-2.6335	-291.7536	106.845
236.203	951.47	-2.6336	-291.7591	106.847
236.228	951.47	-2.6336	-291.7634	106.849
236.253	951.47	-2.6337	-291.7665	106.850
236.278	951.47	-2.6337	-291.7702	106.851
236.303	951.47	-2.6337	-291.7731	106.853
236.328	951.47	-2.6337	-291.7751	106.855
236.353	951.47	-2.6338	-291.7774	106.858
236.378	951.47	-2.6338	-291.7801	106.860
236.403	951.47	-2.6338	-291.7835	106.863
236.428	951.47	-2.6339	-291.7870	106.864
236.453	951.47	-2.6339	-291.7907	106.865
236.478	951.47	-2.6339	-291.7963	106.866
236.503	951.47	-2.6340	-291.8020	106.869
236.528	951.47	-2.6340	-291.8076	106.872
236.553	951.47	-2.6341	-291.8118	106.876
236.578	951.47	-2.6341	-291.8161	106.879
236.603		-2.6341	-291.8199
236.620		-2.6342	-291.8230

[step]
Equilibrate 30.00 °C
Time	Temperature	Weight	Weight	Heat Flow
min	°C	%	µg	mW