File: example/data/SDa_3.txt
Time	Temperature	Weight	Weight	Heat Flow
min	°C	%	mg	mW
0.003		100.0155	8.2853
0.012		100.0351	8.2869
0.020		100.0548	8.2886
0.028		100.0743	8.2902
0.037		100.0926	8.2917
0.045	26.41	100.1083	8.2930	-22.618
0.053	26.48	100.1206	8.2940	-22.574
0.062	26.56	100.1287	8.2947	-22.531
0.070	26.64	100.1326	8.2950	-22.488
0.078	26.72	100.1327	8.2950	-22.446
0.087	26.79	100.1306	8.2948	-22.405
0.095	26.87	100.1280	8.2946	-22.364
0.103	26.94	100.1251	8.2944	-22.323
0.112	27.02	100.1221	8.2941	-22.285
0.120	27.10	100.1190	8.2939	-22.247
0.128	27.17	100.1158	8.2936	-22.211
0.137	27.24	100.1126	8.2933	-22.175
0.145	27.32	100.1092	8.2931	-22.140
0.153	27.39	100.1059	8.2928	-22.106
0.162	27.47	100.1024	8.2925	-22.073
0.170	27.54	100.0988	8.2922	-22.040
0.178	27.61	100.0952	8.2919	-22.009
0.187	27.68	100.0915	8.2916	-21.979
0.195	27.75	100.0877	8.2913	-21.948
0.203	27.82	100.0838	8.2909	-21.919
0.212	27.89	100.0798	8.2906	-21.891
0.220	27.96	100.0758	8.2903	-21.862
0.228	28.03	100.0717	8.2899	-21.835
0.237	28.10	100.0675	8.2896	-21.808
0.245	28.17	100.0632	8.2892	-21.781
0.253	28.24	100.0589	8.2889	-21.756
0.262	28.31	100.0544	8.2885	-21.730
0.270	28.37	100.0499	8.2881	-21.704
0.278	28.44	100.0454	8.2878	-21.680
0.287	28.51	100.0407	8.2874	-21.654
0.295	28.57	100.0360	8.2870	-21.630
0.303	28.64	100.0311	8.2866	-21.606
0.312	28.70	100.0262	8.2862	-21.582
0.320	28.77	100.0212	8.2858	-21.560
0.328	28.83	100.0161	8.2853	-21.538
0.337	28.90	100.0109	8.2849	-21.515
0.345	28.96	100.0056	8.2845	-21.492
0.353	29.03	100.0003	8.2840	-21.471
0.362	29.09	99.9948	8.2836	-21.451
0.370	29.15	99.9893	8.2831	-21.431
0.378	29.21	99.9837	8.2827	-21.411
0.387	29.28	99.9780	8.2822	-21.391
0.395	29.34	99.9722	8.2817	-21.372
0.403	29.40	99.9663	8.2812	-21.352
0.412	29.46	99.9604	8.2807	-21.332
0.420	29.52	99.9544	8.2802	-21.313
0.428	29.58	99.9483	8.2797	-21.295
0.437	29.64	99.9421	8.2792	-21.276
0.445	29.69	99.9359	8.2787	-21.258
0.453	29.75	99.9296	8.2782	-21.239
0.462	29.81	99.9232	8.2776	-21.222
0.470	29.87	99.9168	8.2771	-21.205
0.478	29.93	99.9103	8.2766	-21.187
0.487	29.98	99.9037	8.2760	-21.170
0.495	30.04	99.8971	8.2755	-21.153
0.503	30.09	99.8904	8.2749	-21.137
0.512	30.15	99.8836	8.2744	-21.121
0.520	30.21	99.8768	8.2738	-21.104
0.528	30.26	99.8699	8.2732	-21.089
0.537	30.31	99.8630	8.2727	-21.073
0.545	30.37	99.8560	8.2721	-21.057
0.553	30.42	99.8490	8.2715	-21.041
0.562	30.48	99.8419	8.2709	-21.025
0.570	30.53	99.8347	8.2703	-21.010
0.578	30.58	99.8276	8.2697	-20.996
0.587	30.64	99.8203	8.2691	-20.981
0.595	30.69	99.8130	8.2685	-20.965
0.603	30.74	99.8057	8.2679	-20.950
0.612	30.79	99.7984	8.2673	-20.934
0.620	30.85	99.7910	8.2667	-20.919
0.628	30.90	99.7835	8.2661	-20.905
0.637	30.95	99.7761	8.2655	-20.890
0.645	31.00	99.7686	8.2648	-20.876
0.653	31.05	99.7610	8.2642	-20.862
0.662	31.10	99.7535	8.2636	-20.847
0.670	31.15	99.7459	8.2630	-20.832
0.678	31.20	99.7382	8.2623	-20.817
0.687	31.25	99.7306	8.2617	-20.802
0.695	31.30	99.7229	8.2611	-20.788
0.703	31.35	99.7152	8.2604	-20.774
0.712	31.40	99.7074	8.2598	-20.760
0.720	31.44	99.6996	8.2591	-20.747
0.728	31.49	99.6918	8.2585	-20.732
0.737	31.54	99.6840	8.2578	-20.718
0.745	31.59	99.6761	8.2572	-20.704
0.753	31.64	99.6683	8.2565	-20.690
0.762	31.69	99.6604	8.2559	-20.677
0.770	31.73	99.6524	8.2552	-20.662
0.778	31.78	99.6445	8.2546	-20.648
0.787	31.83	99.6366	8.2539	-20.635
0.795	31.88	99.6286	8.2532	-20.622
0.803	31.92	99.6207	8.2526	-20.608
0.812	31.97	99.6127	8.2519	-20.595
0.820	32.02	99.6046	8.2513	-20.582
0.828	32.06	99.5966	8.2506	-20.568
0.837	32.11	99.5886	8.2499	-20.554
0.845	32.16	99.5805	8.2493	-20.541
0.853	32.21	99.5724	8.2486	-20.529
0.862	32.25	99.5644	8.2479	-20.516
0.870	32.30	99.5563	8.2473	-20.503
0.878	32.35	99.5482	8.2466	-20.489
0.887	32.40	99.5401	8.2459	-20.476
0.895	32.44	99.5320	8.2452	-20.463
0.903	32.49	99.5239	8.2446	-20.450
0.912	32.54	99.5158	8.2439	-20.438
0.920	32.59	99.5077	8.2432	-20.425
0.928	32.64	99.4995	8.2426	-20.412
0.937	32.68	99.4914	8.2419	-20.399
0.945	32.73	99.4833	8.2412	-20.386
0.953	32.78	99.4752	8.2405	-20.373
0.962	32.83	99.4671	8.2399	-20.360
0.970	32.88	99.4589	8.2392	-20.348
0.978	32.93	99.4508	8.2385	-20.336
0.987	32.98	99.4427	8.2378	-20.324
0.995	33.03	99.4346	8.2372	-20.311
1.003	33.08	99.4265	8.2365	-20.299
1.012	33.13	99.4184	8.2358	-20.287
1.020	33.18	99.4103	8.2352	-20.274
1.028	33.23	99.4022	8.2345	-20.262
1.037	33.28	99.3940	8.2338	-20.249
1.045	33.33	99.3860	8.2331	-20.236
1.053	33.38	99.3779	8.2325	-20.223
1.062	33.43	99.3698	8.2318	-20.210
1.070	33.48	99.3617	8.2311	-20.197
1.078	33.54	99.3536	8.2305	-20.185
1.087	33.59	99.3455	8.2298	-20.172
1.095	33.64	99.3374	8.2291	-20.159
1.103	33.69	99.3293	8.2285	-20.146
1.112	33.74	99.3213	8.2278	-20.133
1.120	33.80	99.3132	8.2271	-20.120
1.128	33.85	99.3051	8.2264	-20.107
1.137	33.90	99.2970	8.2258	-20.093
1.145	33.96	99.2889	8.2251	-20.078
1.153	34.01	99.2809	8.2244	-20.063
1.162	34.07	99.2728	8.2238	-20.049
1.170	34.12	99.2647	8.2231	-20.034
1.178	34.18	99.2567	8.2224	-20.020
1.187	34.23	99.2486	8.2218	-20.005
1.195	34.29	99.2406	8.2211	-19.990
1.203	34.34	99.2325	8.2204	-19.976
1.212	34.40	99.2245	8.2198	-19.961
1.220	34.46	99.2164	8.2191	-19.946
1.228	34.51	99.2084	8.2184	-19.930
1.237	34.57	99.2004	8.2178	-19.915
1.245	34.63	99.1923	8.2171	-19.899
1.253	34.68	99.1843	8.2164	-19.884
1.262	34.74	99.1762	8.2158	-19.868
1.270	34.80	99.1682	8.2151	-19.852
1.278	34.86	99.1601	8.2144	-19.836
1.287	34.92	99.1521	8.2138	-19.819
1.295	34.98	99.1441	8.2131	-19.802
1.303	35.03	99.1360	8.2124	-19.785
1.312	35.09	99.1280	8.2118	-19.768
1.320	35.15	99.1199	8.2111	-19.751
1.328	35.21	99.1119	8.2104	-19.733
1.337	35.27	99.1039	8.2098	-19.715
1.345	35.34	99.0958	8.2091	-19.697
1.353	35.40	99.0878	8.2084	-19.679
1.362	35.46	99.0797	8.2078	-19.661
1.370	35.52	99.0717	8.2071	-19.642
1.378	35.58	99.0636	8.2064	-19.623
1.387	35.64	99.0556	8.2058	-19.605
1.395	35.71	99.0475	8.2051	-19.586
1.403	35.77	99.0394	8.2044	-19.567
1.412	35.83	99.0313	8.2038	-19.547
1.420	35.90	99.0232	8.2031	-19.528
1.428	35.96	99.0151	8.2024	-19.507
1.437	36.02	99.0070	8.2017	-19.487
1.445	36.09	98.9989	8.2011	-19.466
1.453	36.15	98.9908	8.2004	-19.445
1.462	36.22	98.9826	8.1997	-19.424
1.470	36.28	98.9745	8.1991	-19.404
1.478	36.35	98.9664	8.1984	-19.382
1.487	36.42	98.9582	8.1977	-19.362
1.495	36.48	98.9501	8.1970	-19.341
1.503	36.55	98.9419	8.1964	-19.320
1.512	36.62	98.9338	8.1957	-19.299
1.520	36.68	98.9256	8.1950	-19.279
1.528	36.75	98.9175	8.1943	-19.259
1.537	36.82	98.9093	8.1937	-19.238
1.545	36.89	98.9012	8.1930	-19.217
1.553	36.95	98.8930	8.1923	-19.194
1.562	37.02	98.8849	8.1916	-19.173
1.570	37.09	98.8767	8.1910	-19.151
1.578	37.16	98.8685	8.1903	-19.129
1.587	37.23	98.8603	8.1896	-19.107
1.595	37.30	98.8521	8.1889	-19.083
1.603	37.37	98.8439	8.1882	-19.060
1.612	37.44	98.8357	8.1876	-19.036
1.620	37.51	98.8275	8.1869	-19.013
1.628	37.58	98.8193	8.1862	-18.990
1.637	37.66	98.8110	8.1855	-18.966
1.645	37.73	98.8028	8.1848	-18.943
1.653	37.80	98.7945	8.1841	-18.919
1.662	37.87	98.7862	8.1835	-18.895
1.670	37.95	98.7780	8.1828	-18.871
1.678	38.02	98.7697	8.1821	-18.847
1.687	38.09	98.7614	8.1814	-18.823
1.695	38.16	98.7531	8.1807	-18.798
1.703	38.24	98.7449	8.1800	-18.773
1.712	38.31	98.7366	8.1793	-18.748
1.720	38.39	98.7283	8.1787	-18.722
1.728	38.46	98.7200	8.1780	-18.697
1.737	38.54	98.7117	8.1773	-18.671
1.745	38.61	98.7034	8.1766	-18.644
1.753	38.69	98.6951	8.1759	-18.618
1.762	38.76	98.6868	8.1752	-18.592
1.770	38.84	98.6785	8.1745	-18.565
1.778	38.92	98.6701	8.1738	-18.539
1.787	38.99	98.6618	8.1732	-18.512
1.795	39.07	98.6535	8.1725	-18.486
1.803	39.15	98.6452	8.1718	-18.460
1.812	39.22	98.6369	8.1711	-18.434
1.820	39.30	98.6285	8.1704	-18.407
1.828	39.38	98.6202	8.1697	-18.381
1.837	39.46	98.6118	8.1690	-18.354
1.845	39.53	98.6035	8.1683	-18.327
1.853	39.61	98.5951	8.1676	-18.300
1.862	39.69	98.5867	8.1669	-18.273
1.870	39.77	98.5784	8.1662	-18.246
1.878	39.85	98.5700	8.1655	-18.218
1.887	39.93	98.5616	8.1649	-18.190
1.895	40.01	98.5532	8.1642	-18.161
1.903	40.09	98.5448	8.1635	-18.134
1.912	40.17	98.5364	8.1628	-18.106
1.920	40.25	98.5280	8.1621	-18.079
1.928	40.33	98.5196	8.1614	-18.051
1.937	40.41	98.5112	8.1607	-18.023
1.945	40.49	98.5028	8.1600	-17.995
1.953	40.57	98.4944	8.1593	-17.967
1.962	40.65	98.4860	8.1586	-17.939
1.970	40.74	98.4776	8.1579	-17.911
1.978	40.82	98.4692	8.1572	-17.883
1.987	40.90	98.4607	8.1565	-17.854
1.995	40.98	98.4523	8.1558	-17.825
2.003	41.06	98.4439	8.1551	-17.796
2.012	41.15	98.4354	8.1544	-17.767
2.020	41.23	98.4270	8.1537	-17.739
2.028	41.31	98.4185	8.1530	-17.710
2.037	41.39	98.4101	8.1523	-17.681
2.045	41.48	98.4016	8.1516	-17.652
2.053	41.56	98.3931	8.1509	-17.623
2.062	41.64	98.3847	8.1502	-17.593
2.070	41.73	98.3762	8.1495	-17.564
2.078	41.81	98.3677	8.1488	-17.534
2.087	41.90	98.3592	8.1481	-17.505
2.095	41.98	98.3508	8.1474	-17.474
2.103	42.07	98.3423	8.1467	-17.443
2.112	42.15	98.3338	8.1460	-17.413
2.120	42.24	98.3254	8.1453	-17.383
2.128	42.32	98.3169	8.1446	-17.352
2.137	42.41	98.3084	8.1439	-17.322
2.145	42.49	98.3000	8.1432	-17.291
2.153	42.58	98.2915	8.1425	-17.260
2.162	42.66	98.2830	8.1418	-17.229
2.170	42.75	98.2745	8.1411	-17.197
2.178	42.84	98.2660	8.1404	-17.166
2.187	42.92	98.2575	8.1397	-17.135
2.195	43.01	98.2490	8.1390	-17.104
2.203	43.09	98.2405	8.1383	-17.073
2.212	43.18	98.2320	8.1375	-17.041
2.220	43.27	98.2235	8.1368	-17.010
2.228	43.35	98.2150	8.1361	-16.979
2.237	43.44	98.2065	8.1354	-16.948
2.245	43.53	98.1980	8.1347	-16.916
2.253	43.62	98.1895	8.1340	-16.885
2.262	43.70	98.1810	8.1333	-16.853
2.270	43.79	98.1725	8.1326	-16.821
2.278	43.88	98.1640	8.1319	-16.789
2.287	43.97	98.1555	8.1312	-16.758
2.295	44.05	98.1470	8.1305	-16.725
2.303	44.14	98.1384	8.1298	-16.693
2.312	44.23	98.1299	8.1291	-16.660
2.320	44.32	98.1214	8.1284	-16.627
2.328	44.41	98.1128	8.1277	-16.595
2.337	44.50	98.1043	8.1270	-16.562
2.345	44.59	98.0957	8.1263	-16.529
2.353	44.67	98.0872	8.1256	-16.496
2.362	44.76	98.0786	8.1248	-16.463
2.370	44.85	98.0701	8.1241	-16.430
2.378	44.94	98.0615	8.1234	-16.396
2.387	45.03	98.0530	8.1227	-16.362
2.395	45.12	98.0444	8.1220	-16.329
2.403	45.21	98.0358	8.1213	-16.295
2.412	45.30	98.0273	8.1206	-16.261
2.420	45.39	98.0187	8.1199	-16.227
2.428	45.48	98.0102	8.1192	-16.193
2.437	45.57	98.0016	8.1185	-16.158
2.445	45.66	97.9931	8.1178	-16.124
2.453	45.75	97.9846	8.1170	-16.090
2.462	45.84	97.9760	8.1163	-16.056
2.470	45.93	97.9675	8.1156	-16.022
2.478	46.02	97.9589	8.1149	-15.988
2.487	46.11	97.9504	8.1142	-15.953
2.495	46.20	97.9419	8.1135	-15.918
2.503	46.29	97.9333	8.1128	-15.885
2.512	46.38	97.9248	8.1121	-15.850
2.520	46.47	97.9163	8.1114	-15.816
2.528	46.56	97.9078	8.1107	-15.782
2.537	46.65	97.8993	8.1100	-15.747
2.545	46.74	97.8907	8.1093	-15.712
2.553	46.83	97.8822	8.1086	-15.677
2.562	46.92	97.8737	8.1079	-15.642
2.570	47.01	97.8652	8.1072	-15.608
2.578	47.10	97.8566	8.1065	-15.573
2.587	47.19	97.8481	8.1057	-15.538
2.595	47.28	97.8396	8.1050	-15.503
2.603	47.38	97.8311	8.1043	-15.467
2.612	47.47	97.8226	8.1036	-15.432
2.620	47.56	97.8141	8.1029	-15.397
2.628	47.65	97.8056	8.1022	-15.361
2.637	47.74	97.7971	8.1015	-15.325
2.645	47.83	97.7885	8.1008	-15.290
2.653	47.92	97.7801	8.1001	-15.255
2.662	48.01	97.7716	8.0994	-15.220
2.670	48.10	97.7631	8.0987	-15.183
2.678	48.19	97.7546	8.0980	-15.148
2.687	48.28	97.7461	8.0973	-15.112
2.695	48.38	97.7376	8.0966	-15.077
2.703	48.47	97.7292	8.0959	-15.041
2.712	48.56	97.7207	8.0952	-15.005
2.720	48.65	97.7122	8.0945	-14.970
2.728	48.74	97.7038	8.0938	-14.934
2.737	48.83	97.6953	8.0931	-14.897
2.745	48.92	97.6868	8.0924	-14.861
2.753	49.02	97.6784	8.0917	-14.825
2.762	49.11	97.6699	8.0910	-14.788
2.770	49.20	97.6615	8.0903	-14.751
2.778	49.29	97.6530	8.0896	-14.715
2.787	49.38	97.6446	8.0889	-14.679
2.795	49.47	97.6362	8.0882	-14.642
2.803	49.57	97.6277	8.0875	-14.605
2.812	49.66	97.6193	8.0868	-14.568
2.820	49.75	97.6109	8.0861	-14.532
2.828	49.84	97.6025	8.0854	-14.495
2.837	49.93	97.5940	8.0847	-14.459
2.845	50.02	97.5856	8.0840	-14.422
2.853	50.11	97.5772	8.0833	-14.385
2.862	50.21	97.5688	8.0826	-14.348
2.870	50.30	97.5604	8.0819	-14.310
2.878	50.39	97.5520	8.0812	-14.273
2.887	50.48	97.5436	8.0805	-14.236
2.895	50.57	97.5352	8.0798	-14.199
2.903	50.66	97.5268	8.0791	-14.160
2.912	50.75	97.5184	8.0784	-14.123
2.920	50.85	97.5100	8.0777	-14.084
2.928	50.94	97.5016	8.0770	-14.047
2.937	51.03	97.4933	8.0764	-14.010
2.945	51.12	97.4850	8.0757	-13.972
2.953	51.21	97.4766	8.0750	-13.935
2.962	51.30	97.4683	8.0743	-13.898
2.970	51.39	97.4600	8.0736	-13.861
2.978	51.49	97.4517	8.0729	-13.823
2.987	51.58	97.4434	8.0722	-13.786
2.995	51.67	97.4351	8.0715	-13.748
3.003	51.76	97.4268	8.0708	-13.712
3.012	51.85	97.4185	8.0702	-13.675
3.020	51.94	97.4102	8.0695	-13.638
3.028	52.03	97.4019	8.0688	-13.600
3.037	52.13	97.3937	8.0681	-13.563
3.045	52.22	97.3854	8.0674	-13.525
3.053	52.31	97.3772	8.0667	-13.488
3.062	52.40	97.3690	8.0661	-13.450
3.070	52.49	97.3607	8.0654	-13.413
3.078	52.58	97.3525	8.0647	-13.376
3.087	52.67	97.3444	8.0640	-13.337
3.095	52.76	97.3362	8.0633	-13.299
3.103	52.86	97.3280	8.0627	-13.261
3.112	52.95	97.3199	8.0620	-13.223
3.120	53.04	97.3117	8.0613	-13.185
3.128	53.13	97.3036	8.0606	-13.146
3.137	53.22	97.2955	8.0600	-13.108
3.145	53.31	97.2873	8.0593	-13.070
3.153	53.40	97.2792	8.0586	-13.033
3.162	53.49	97.2711	8.0580	-12.994
3.170	53.58	97.2631	8.0573	-12.956
3.178	53.67	97.2550	8.0566	-12.918
3.187	53.76	97.2469	8.0559	-12.880
3.195	53.86	97.2388	8.0553	-12.842
3.203	53.95	97.2308	8.0546	-12.803
3.212	54.04	97.2228	8.0539	-12.765
3.220	54.13	97.2148	8.0533	-12.726
3.228	54.22	97.2067	8.0526	-12.688
3.237	54.31	97.1987	8.0520	-12.650
3.245	54.40	97.1908	8.0513	-12.613
3.253	54.49	97.1828	8.0506	-12.575
3.262	54.58	97.1748	8.0500	-12.537
3.270	54.67	97.1669	8.0493	-12.499
3.278	54.76	97.1589	8.0487	-12.461
3.287	54.85	97.1510	8.0480	-12.423
3.295	54.94	97.1431	8.0473	-12.386
3.303	55.03	97.1352	8.0467	-12.348
3.312	55.12	97.1273	8.0460	-12.309
3.320	55.21	97.1195	8.0454	-12.270
3.328	55.30	97.1116	8.0447	-12.231
3.337	55.39	97.1037	8.0441	-12.193
3.345	55.48	97.0959	8.0434	-12.154
3.353	55.57	97.0881	8.0428	-12.116
3.362	55.66	97.0803	8.0421	-12.077
3.370	55.75	97.0725	8.0415	-12.039
3.378	55.84	97.0647	8.0408	-12.000
3.387	55.93	97.0569	8.0402	-11.961
3.395	56.02	97.0492	8.0396	-11.922
3.403	56.11	97.0415	8.0389	-11.884
3.412	56.20	97.0338	8.0383	-11.845
3.420	56.29	97.0261	8.0376	-11.806
3.428	56.38	97.0184	8.0370	-11.769
3.437	56.47	97.0107	8.0364	-11.730
3.445	56.56	97.0031	8.0357	-11.692
3.453	56.65	96.9954	8.0351	-11.654
3.462	56.74	96.9878	8.0345	-11.615
3.470	56.83	96.9802	8.0338	-11.577
3.478	56.92	96.9726	8.0332	-11.539
3.487	57.01	96.9650	8.0326	-11.502
3.495	57.10	96.9575	8.0320	-11.464
3.503	57.19	96.9499	8.0313	-11.427
3.512	57.28	96.9424	8.0307	-11.388
3.520	57.37	96.9349	8.0301	-11.349
3.528	57.46	96.9274	8.0295	-11.311
3.537	57.55	96.9199	8.0289	-11.273
3.545	57.64	96.9124	8.0282	-11.235
3.553	57.73	96.9050	8.0276	-11.197
3.562	57.81	96.8975	8.0270	-11.159
3.570	57.90	96.8901	8.0264	-11.120
3.578	57.99	96.8827	8.0258	-11.082
3.587	58.08	96.8753	8.0252	-11.043
3.595	58.17	96.8680	8.0246	-11.005
3.603	58.26	96.8606	8.0239	-10.967
3.612	58.35	96.8533	8.0233	-10.929
3.620	58.44	96.8460	8.0227	-10.890
3.628	58.52	96.8387	8.0221	-10.852
3.637	58.61	96.8313	8.0215	-10.814
3.645	58.70	96.8241	8.0209	-10.776
3.653	58.79	96.8168	8.0203	-10.738
3.662	58.88	96.8096	8.0197	-10.699
3.670	58.97	96.8024	8.0191	-10.661
3.678	59.05	96.7951	8.0185	-10.623
3.687	59.14	96.7880	8.0179	-10.584
3.695	59.23	96.7808	8.0173	-10.546
3.703	59.32	96.7737	8.0167	-10.507
3.712	59.41	96.7665	8.0161	-10.469
3.720	59.50	96.7594	8.0156	-10.431
3.728	59.59	96.7523	8.0150	-10.393
3.737	59.67	96.7453	8.0144	-10.355
3.745	59.76	96.7382	8.0138	-10.318
3.753	59.85	96.7312	8.0132	-10.281
3.762	59.94	96.7242	8.0126	-10.244
3.770	60.03	96.7172	8.0121	-10.206
3.778	60.11	96.7102	8.0115	-10.168
3.787	60.20	96.7033	8.0109	-10.130
3.795	60.29	96.6963	8.0103	-10.092
3.803	60.38	96.6894	8.0098	-10.054
3.812	60.47	96.6825	8.0092	-10.017
3.820	60.55	96.6756	8.0086	-9.979
3.828	60.64	96.6687	8.0080	-9.940
3.837	60.73	96.6618	8.0075	-9.902
3.845	60.82	96.6550	8.0069	-9.864
3.853	60.90	96.6482	8.0063	-9.827
3.862	60.99	96.6413	8.0058	-9.790
3.870	61.08	96.6346	8.0052	-9.753
3.878	61.17	96.6278	8.0047	-9.716
3.887	61.25	96.6210	8.0041	-9.679
3.895	61.34	96.6143	8.0035	-9.641
3.903	61.43	96.6076	8.0030	-9.605
3.912	61.52	96.6009	8.0024	-9.568
3.920	61.60	96.5942	8.0019	-9.531
3.928	61.69	96.5875	8.0013	-9.494
3.937	61.78	96.5809	8.0008	-9.457
3.945	61.86	96.5742	8.0002	-9.420
3.953	61.95	96.5676	7.9997	-9.383
3.962	62.04	96.5610	7.9991	-9.347
3.970	62.13	96.5544	7.9986	-9.309
3.978	62.21	96.5479	7.9980	-9.272
3.987	62.30	96.5413	7.9975	-9.234
3.995	62.39	96.5348	7.9970	-9.196
4.003	62.47	96.5283	7.9964	-9.158
4.012	62.56	96.5218	7.9959	-9.121
4.020	62.65	96.5154	7.9953	-9.084
4.028	62.73	96.5089	7.9948	-9.047
4.037	62.82	96.5024	7.9943	-9.010
4.045	62.91	96.4960	7.9937	-8.972
4.053	62.99	96.4896	7.9932	-8.936
4.062	63.08	96.4832	7.9927	-8.900
4.070	63.17	96.4768	7.9921	-8.864
4.078	63.26	96.4704	7.9916	-8.828
4.087	63.34	96.4641	7.9911	-8.791
4.095	63.43	96.4578	7.9906	-8.754
4.103	63.52	96.4515	7.9900	-8.718
4.112	63.60	96.4452	7.9895	-8.680
4.120	63.69	96.4389	7.9890	-8.643
4.128	63.78	96.4326	7.9885	-8.606
4.137	63.86	96.4264	7.9880	-8.568
4.145	63.95	96.4202	7.9875	-8.531
4.153	64.04	96.4140	7.9869	-8.495
4.162	64.12	96.4079	7.9864	-8.459
4.170	64.21	96.4017	7.9859	-8.423
4.178	64.29	96.3956	7.9854	-8.387
4.187	64.38	96.3895	7.9849	-8.351
4.195	64.47	96.3834	7.9844	-8.315
4.203	64.55	96.3773	7.9839	-8.279
4.212	64.64	96.3713	7.9834	-8.244
4.220	64.73	96.3653	7.9829	-8.209
4.228	64.81	96.3593	7.9824	-8.173
4.237	64.90	96.3533	7.9819	-8.137
4.245	64.98	96.3473	7.9814	-8.101
4.253	65.07	96.3413	7.9809	-8.065
4.262	65.16	96.3354	7.9804	-8.029
4.270	65.24	96.3294	7.9799	-7.993
4.278	65.33	96.3236	7.9795	-7.958
4.287	65.41	96.3177	7.9790	-7.922
4.295	65.50	96.3118	7.9785	-7.886
4.303	65.59	96.3060	7.9780	-7.850
4.312	65.67	96.3001	7.9775	-7.814
4.320	65.76	96.2943	7.9770	-7.778
4.328	65.85	96.2885	7.9766	-7.742
4.337	65.93	96.2828	7.9761	-7.707
4.345	66.02	96.2770	7.9756	-7.671
4.353	66.10	96.2713	7.9751	-7.636
4.362	66.19	96.2656	7.9746	-7.600
4.370	66.28	96.2599	7.9742	-7.564
4.378	66.36	96.2542	7.9737	-7.528
4.387	66.45	96.2485	7.9732	-7.493
4.395	66.53	96.2429	7.9728	-7.457
4.403	66.62	96.2373	7.9723	-7.422
4.412	66.70	96.2317	7.9718	-7.387
4.420	66.79	96.2261	7.9714	-7.351
4.428	66.88	96.2205	7.9709	-7.315
4.437	66.96	96.2150	7.9705	-7.280
4.445	67.05	96.2094	7.9700	-7.244
4.453	67.13	96.2039	7.9695	-7.209
4.462	67.22	96.1984	7.9691	-7.174
4.470	67.30	96.1930	7.9686	-7.139
4.478	67.39	96.1875	7.9682	-7.103
4.487	67.48	96.1820	7.9677	-7.068
4.495	67.56	96.1766	7.9673	-7.033
4.503	67.65	96.1712	7.9668	-6.998
4.512	67.73	96.1658	7.9664	-6.963
4.520	67.82	96.1604	7.9659	-6.928
4.528	67.90	96.1550	7.9655	-6.894
4.537	67.99	96.1497	7.9650	-6.860
4.545	68.08	96.1444	7.9646	-6.825
4.553	68.16	96.1390	7.9642	-6.790
4.562	68.25	96.1337	7.9637	-6.757
4.570	68.33	96.1284	7.9633	-6.722
4.578	68.42	96.1232	7.9629	-6.688
4.587	68.50	96.1179	7.9624	-6.654
4.595	68.59	96.1127	7.9620	-6.619
4.603	68.67	96.1075	7.9616	-6.586
4.612	68.76	96.1023	7.9611	-6.551
4.620	68.84	96.0971	7.9607	-6.517
4.628	68.93	96.0920	7.9603	-6.482
4.637	69.01	96.0869	7.9598	-6.447
4.645	69.10	96.0818	7.9594	-6.413
4.653	69.19	96.0767	7.9590	-6.379
4.662	69.27	96.0716	7.9586	-6.344
4.670	69.36	96.0665	7.9582	-6.309
4.678	69.44	96.0615	7.9577	-6.275
4.687	69.53	96.0565	7.9573	-6.240
4.695	69.61	96.0514	7.9569	-6.207
4.703	69.70	96.0464	7.9565	-6.173
4.712	69.79	96.0414	7.9561	-6.140
4.720	69.87	96.0365	7.9557	-6.106
4.728	69.96	96.0315	7.9553	-6.073
4.737	70.04	96.0266	7.9549	-6.039
4.745	70.13	96.0217	7.9544	-6.005
4.753	70.21	96.0167	7.9540	-5.973
4.762	70.30	96.0118	7.9536	-5.939
4.770	70.38	96.0069	7.9532	-5.906
4.778	70.47	96.0021	7.9528	-5.873
4.787	70.55	95.9972	7.9524	-5.840
4.795	70.64	95.9924	7.9520	-5.807
4.803	70.72	95.9876	7.9516	-5.774
4.812	70.81	95.9827	7.9512	-5.740
4.820	70.89	95.9779	7.9508	-5.707
4.828	70.98	95.9732	7.9504	-5.674
4.837	71.06	95.9684	7.9500	-5.641
4.845	71.15	95.9637	7.9496	-5.609
4.853	71.24	95.9590	7.9493	-5.575
4.862	71.32	95.9543	7.9489	-5.542
4.870	71.41	95.9496	7.9485	-5.510
4.878	71.49	95.9449	7.9481	-5.478
4.887	71.58	95.9403	7.9477	-5.445
4.895	71.66	95.9357	7.9473	-5.413
4.903	71.75	95.9310	7.9469	-5.381
4.912	71.83	95.9264	7.9466	-5.349
4.920	71.92	95.9218	7.9462	-5.316
4.928	72.00	95.9173	7.9458	-5.283
4.937	72.09	95.9127	7.9454	-5.250
4.945	72.17	95.9082	7.9450	-5.219
4.953	72.26	95.9037	7.9447	-5.187
4.962	72.34	95.8992	7.9443	-5.155
4.970	72.43	95.8947	7.9439	-5.122
4.978	72.51	95.8902	7.9436	-5.089
4.987	72.60	95.8858	7.9432	-5.056
4.995	72.69	95.8813	7.9428	-5.024
5.003	72.77	95.8769	7.9424	-4.992
5.012	72.86	95.8725	7.9421	-4.961
5.020	72.94	95.8680	7.9417	-4.929
5.028	73.03	95.8636	7.9414	-4.897
5.037	73.11	95.8593	7.9410	-4.865
5.045	73.20	95.8549	7.9406	-4.832
5.053	73.28	95.8505	7.9403	-4.799
5.062	73.37	95.8462	7.9399	-4.767
5.070	73.46	95.8419	7.9395	-4.735
5.078	73.54	95.8375	7.9392	-4.703
5.087	73.63	95.8332	7.9388	-4.671
5.095	73.71	95.8290	7.9385	-4.639
5.103	73.80	95.8247	7.9381	-4.607
5.112	73.88	95.8204	7.9378	-4.575
5.120	73.97	95.8162	7.9374	-4.543
5.128	74.05	95.8120	7.9371	-4.511
5.137	74.14	95.8078	7.9367	-4.480
5.145	74.22	95.8036	7.9364	-4.449
5.153	74.31	95.7994	7.9360	-4.417
5.162	74.39	95.7952	7.9357	-4.386
5.170	74.48	95.7911	7.9353	-4.355
5.178	74.56	95.7870	7.9350	-4.324
5.187	74.65	95.7829	7.9347	-4.293
5.195	74.74	95.7788	7.9343	-4.262
5.203	74.82	95.7747	7.9340	-4.232
5.212	74.91	95.7706	7.9336	-4.201
5.220	74.99	95.7666	7.9333	-4.171
5.228	75.08	95.7625	7.9330	-4.140
5.237	75.16	95.7585	7.9326	-4.109
5.245	75.25	95.7545	7.9323	-4.079
5.253	75.33	95.7505	7.9320	-4.048
5.262	75.42	95.7466	7.9317	-4.017
5.270	75.50	95.7426	7.9313	-3.986
5.278	75.59	95.7387	7.9310	-3.956
5.287	75.68	95.7347	7.9307	-3.926
5.295	75.76	95.7308	7.9303	-3.895
5.303	75.85	95.7269	7.9300	-3.865
5.312	75.93	95.7231	7.9297	-3.834
5.320	76.02	95.7192	7.9294	-3.803
5.328	76.10	95.7153	7.9291	-3.772
5.337	76.19	95.7115	7.9287	-3.741
5.345	76.27	95.7077	7.9284	-3.710
5.353	76.36	95.7038	7.9281	-3.679
5.362	76.45	95.7000	7.9278	-3.648
5.370	76.53	95.6963	7.9275	-3.618
5.378	76.62	95.6925	7.9272	-3.587
5.387	76.70	95.6887	7.9269	-3.557
5.395	76.79	95.6850	7.9266	-3.526
5.403	76.87	95.6812	7.9262	-3.496
5.412	76.96	95.6775	7.9259	-3.466
5.420	77.04	95.6738	7.9256	-3.437
5.428	77.13	95.6700	7.9253	-3.407
5.437	77.21	95.6664	7.9250	-3.377
5.445	77.30	95.6627	7.9247	-3.348
5.453	77.39	95.6590	7.9244	-3.318
5.462	77.47	95.6554	7.9241	-3.287
5.470	77.56	95.6518	7.9238	-3.257
5.478	77.64	95.6481	7.9235	-3.228
5.487	77.73	95.6446	7.9232	-3.198
5.495	77.82	95.6410	7.9229	-3.169
5.503	77.90	95.6374	7.9226	-3.139
5.512	77.99	95.6339	7.9223	-3.110
5.520	78.07	95.6303	7.9220	-3.080
5.528	78.16	95.6268	7.9217	-3.050
5.537	78.24	95.6233	7.9214	-3.020
5.545	78.33	95.6197	7.9211	-2.991
5.553	78.42	95.6162	7.9209	-2.962
5.562	78.50	95.6128	7.9206	-2.933
5.570	78.59	95.6093	7.9203	-2.904
5.578	78.67	95.6058	7.9200	-2.875
5.587	78.76	95.6024	7.9197	-2.845
5.595	78.84	95.5990	7.9194	-2.816
5.603	78.93	95.5956	7.9191	-2.788
5.612	79.02	95.5921	7.9189	-2.759
5.620	79.10	95.5888	7.9186	-2.731
5.628	79.19	95.5854	7.9183	-2.702
5.637	79.28	95.5820	7.9180	-2.673
5.645	79.36	95.5787	7.9177	-2.645
5.653	79.45	95.5753	7.9175	-2.616
5.662	79.53	95.5720	7.9172	-2.587
5.670	79.62	95.5687	7.9169	-2.559
5.678	79.71	95.5653	7.9166	-2.530
5.687	79.79	95.5620	7.9164	-2.501
5.695	79.88	95.5588	7.9161	-2.472
5.703	79.96	95.5555	7.9158	-2.444
5.712	80.05	95.5522	7.9156	-2.415
5.720	80.13	95.5489	7.9153	-2.386
5.728	80.22	95.5457	7.9150	-2.357
5.737	80.31	95.5424	7.9147	-2.329
5.745	80.39	95.5392	7.9145	-2.301
5.753	80.48	95.5360	7.9142	-2.273
5.762	80.56	95.5328	7.9139	-2.245
5.770	80.65	95.5296	7.9137	-2.218
5.778	80.74	95.5264	7.9134	-2.191
5.787	80.82	95.5232	7.9132	-2.163
5.795	80.91	95.5201	7.9129	-2.136
5.803	80.99	95.5169	7.9126	-2.108
5.812	81.08	95.5138	7.9124	-2.080
5.820	81.17	95.5107	7.9121	-2.053
5.828	81.25	95.5076	7.9119	-2.025
5.837	81.34	95.5045	7.9116	-1.997
5.845	81.43	95.5014	7.9113	-1.969
5.853	81.51	95.4984	7.9111	-1.940
5.862	81.60	95.4953	7.9108	-1.910
5.870	81.68	95.4923	7.9106	-1.882
5.878	81.77	95.4892	7.9103	-1.854
5.887	81.86	95.4862	7.9101	-1.825
5.895	81.94	95.4832	7.9098	-1.797
5.903	82.03	95.4802	7.9096	-1.769
5.912	82.12	95.4772	7.9093	-1.741
5.920	82.20	95.4743	7.9091	-1.713
5.928	82.29	95.4713	7.9089	-1.686
5.937	82.37	95.4684	7.9086	-1.659
5.945	82.46	95.4655	7.9084	-1.632
5.953	82.55	95.4625	7.9081	-1.604
5.962	82.63	95.4596	7.9079	-1.577
5.970	82.72	95.4568	7.9076	-1.549
5.978	82.81	95.4539	7.9074	-1.522
5.987	82.89	95.4510	7.9072	-1.495
5.995	82.98	95.4482	7.9069	-1.468
6.003	83.07	95.4454	7.9067	-1.440
6.012	83.15	95.4425	7.9065	-1.412
6.020	83.24	95.4397	7.9062	-1.385
6.028	83.32	95.4369	7.9060	-1.358
6.037	83.41	95.4341	7.9058	-1.331
6.045	83.50	95.4313	7.9055	-1.304
6.053	83.58	95.4286	7.9053	-1.278
6.062	83.67	95.4258	7.9051	-1.251
6.070	83.76	95.4230	7.9049	-1.225
6.078	83.84	95.4203	7.9046	-1.198
6.087	83.93	95.4175	7.9044	-1.172
6.095	84.02	95.4148	7.9042	-1.146
6.103	84.10	95.4120	7.9039	-1.119
6.112	84.19	95.4093	7.9037	-1.092
6.120	84.27	95.4066	7.9035	-1.066
6.128	84.36	95.4039	7.9033	-1.040
6.137	84.45	95.4011	7.9030	-1.013
6.145	84.53	95.3985	7.9028	-0.986
6.153	84.62	95.3958	7.9026	-0.959
6.162	84.71	95.3931	7.9024	-0.932
6.170	84.79	95.3905	7.9022	-0.905
6.178	84.88	95.3878	7.9019	-0.878
6.187	84.97	95.3852	7.9017	-0.851
6.195	85.05	95.3826	7.9015	-0.825
6.203	85.14	95.3800	7.9013	-0.798
6.212	85.23	95.3774	7.9011	-0.771
6.220	85.31	95.3748	7.9009	-0.745
6.228	85.40	95.3723	7.9006	-0.718
6.237	85.49	95.3697	7.9004	-0.692
6.245	85.57	95.3672	7.9002	-0.665
6.253	85.66	95.3646	7.9000	-0.639
6.262	85.75	95.3621	7.8998	-0.613
6.270	85.83	95.3596	7.8996	-0.586
6.278	85.92	95.3571	7.8994	-0.560
6.287	86.01	95.3546	7.8992	-0.534
6.295	86.09	95.3521	7.8990	-0.508
6.303	86.18	95.3496	7.8988	-0.482
6.312	86.27	95.3472	7.8986	-0.456
6.320	86.35	95.3447	7.8984	-0.431
6.328	86.44	95.3423	7.8982	-0.405
6.337	86.53	95.3398	7.8980	-0.379
6.345	86.61	95.3374	7.8978	-0.352
6.353	86.70	95.3349	7.8976	-0.326
6.362	86.79	95.3325	7.8974	-0.300
6.370	86.87	95.3301	7.8972	-0.274
6.378	86.96	95.3277	7.8970	-0.248
6.387	87.05	95.3253	7.8968	-0.222
6.395	87.13	95.3229	7.8966	-0.196
6.403	87.22	95.3206	7.8964	-0.171
6.412	87.31	95.3182	7.8962	-0.146
6.420	87.39	95.3159	7.8960	-0.121
6.428	87.48	95.3136	7.8958	-0.095
6.437	87.57	95.3113	7.8956	-0.070
6.445	87.65	95.3090	7.8954	-0.044
6.453	87.74	95.3067	7.8952	-0.018
6.462	87.82	95.3044	7.8950	0.007
6.470	87.91	95.3022	7.8948	0.033
6.478	88.00	95.2999	7.8947	0.058
6.487	88.08	95.2977	7.8945	0.082
6.495	88.17	95.2954	7.8943	0.108
6.503	88.26	95.2932	7.8941	0.132
6.512	88.34	95.2910	7.8939	0.157
6.520	88.43	95.2888	7.8937	0.182
6.528	88.52	95.2866	7.8936	0.206
6.537	88.61	95.2844	7.8934	0.230
6.545	88.69	95.2823	7.8932	0.255
6.553	88.78	95.2801	7.8930	0.279
6.562	88.87	95.2779	7.8928	0.305
6.570	88.95	95.2758	7.8927	0.330
6.578	89.04	95.2736	7.8925	0.355
6.587	89.13	95.2715	7.8923	0.380
6.595	89.21	95.2694	7.8921	0.404
6.603	89.30	95.2672	7.8919	0.429
6.612	89.39	95.2651	7.8918	0.455
6.620	89.47	95.2630	7.8916	0.480
6.628	89.56	95.2609	7.8914	0.504
6.637	89.65	95.2588	7.8913	0.529
6.645	89.73	95.2568	7.8911	0.554
6.653	89.82	95.2547	7.8909	0.578
6.662	89.91	95.2526	7.8907	0.602
6.670	89.99	95.2506	7.8906	0.626
6.678	90.08	95.2485	7.8904	0.650
6.687	90.17	95.2465	7.8902	0.675
6.695	90.25	95.2444	7.8901	0.699
6.703	90.34	95.2424	7.8899	0.722
6.712	90.43	95.2404	7.8897	0.746
6.720	90.51	95.2384	7.8896	0.770
6.728	90.60	95.2364	7.8894	0.794
6.737	90.69	95.2344	7.8892	0.818
6.745	90.77	95.2325	7.8891	0.843
6.753	90.86	95.2305	7.8889	0.866
6.762	90.95	95.2286	7.8887	0.890
6.770	91.03	95.2266	7.8886	0.914
6.778	91.12	95.2247	7.8884	0.937
6.787	91.21	95.2228	7.8883	0.961
6.795	91.29	95.2209	7.8881	0.985
6.803	91.38	95.2190	7.8879	1.009
6.812	91.47	95.2171	7.8878	1.032
6.820	91.55	95.2152	7.8876	1.056
6.828	91.64	95.2133	7.8875	1.079
6.837	91.73	95.2114	7.8873	1.104
6.845	91.81	95.2095	7.8872	1.128
6.853	91.90	95.2076	7.8870	1.151
6.862	91.99	95.2058	7.8869	1.175
6.870	92.07	95.2039	7.8867	1.199
6.878	92.16	95.2020	7.8865	1.224
6.887	92.25	95.2002	7.8864	1.247
6.895	92.33	95.1983	7.8862	1.271
6.903	92.42	95.1965	7.8861	1.295
6.912	92.51	95.1946	7.8859	1.320
6.920	92.59	95.1928	7.8858	1.343
6.928	92.68	95.1909	7.8856	1.366
6.937	92.77	95.1891	7.8855	1.389
6.945	92.85	95.1873	7.8853	1.413
6.953	92.94	95.1855	7.8852	1.436
6.962	93.03	95.1837	7.8850	1.459
6.970	93.11	95.1819	7.8849	1.482
6.978	93.20	95.1802	7.8847	1.505
6.987	93.29	95.1784	7.8846	1.527
6.995	93.37	95.1767	7.8844	1.551
7.003	93.46	95.1749	7.8843	1.574
7.012	93.55	95.1732	7.8842	1.597
7.020	93.63	95.1714	7.8840	1.620
7.028	93.72	95.1697	7.8839	1.643
7.037	93.81	95.1680	7.8837	1.665
7.045	93.89	95.1663	7.8836	1.688
7.053	93.98	95.1646	7.8834	1.711
7.062	94.07	95.1629	7.8833	1.734
7.070	94.15	95.1613	7.8832	1.757
7.078	94.24	95.1596	7.8830	1.780
7.087	94.33	95.1580	7.8829	1.803
7.095	94.41	95.1563	7.8828	1.826
7.103	94.50	95.1547	7.8826	1.849
7.112	94.59	95.1530	7.8825	1.871
7.120	94.67	95.1514	7.8824	1.894
7.128	94.76	95.1498	7.8822	1.916
7.137	94.84	95.1482	7.8821	1.939
7.145	94.93	95.1466	7.8820	1.961
7.153	95.02	95.1450	7.8818	1.983
7.162	95.10	95.1435	7.8817	2.006
7.170	95.19	95.1419	7.8816	2.028
7.178	95.28	95.1404	7.8814	2.051
7.187	95.37	95.1388	7.8813	2.073
7.195	95.45	95.1373	7.8812	2.096
7.203	95.54	95.1358	7.8811	2.119
7.212	95.63	95.1343	7.8809	2.141
7.220	95.71	95.1328	7.8808	2.163
7.228	95.80	95.1313	7.8807	2.185
7.237	95.89	95.1298	7.8806	2.207
7.245	95.97	95.1283	7.8804	2.230
7.253	96.06	95.1268	7.8803	2.253
7.262	96.14	95.1253	7.8802	2.275
7.270	96.23	95.1238	7.8801	2.297
7.278	96.32	95.1223	7.8799	2.319
7.287	96.40	95.1209	7.8798	2.341
7.295	96.49	95.1194	7.8797	2.364
7.303	96.58	95.1180	7.8796	2.386
7.312	96.66	95.1165	7.8795	2.408
7.320	96.75	95.1151	7.8793	2.430
7.328	96.84	95.1136	7.8792	2.451
7.337	96.92	95.1122	7.8791	2.473
7.345	97.01	95.1108	7.8790	2.494
7.353	97.10	95.1094	7.8789	2.516
7.362	97.18	95.1079	7.8788	2.537
7.370	97.27	95.1065	7.8786	2.558
7.378	97.36	95.1051	7.8785	2.580
7.387	97.44	95.1037	7.8784	2.602
7.395	97.53	95.1024	7.8783	2.624
7.403	97.62	95.1010	7.8782	2.646
7.412	97.70	95.0996	7.8781	2.669
7.420	97.79	95.0983	7.8779	2.691
7.428	97.87	95.0969	7.8778	2.713
7.437	97.96	95.0955	7.8777	2.735
7.445	98.05	95.0942	7.8776	2.757
7.453	98.13	95.0929	7.8775	2.779
7.462	98.22	95.0915	7.8774	2.801
7.470	98.31	95.0902	7.8773	2.822
7.478	98.39	95.0889	7.8772	2.843
7.487	98.48	95.0876	7.8771	2.863
7.495	98.57	95.0863	7.8770	2.884
7.503	98.65	95.0850	7.8769	2.904
7.512	98.74	95.0837	7.8767	2.926
7.520	98.83	95.0825	7.8766	2.946
7.528	98.91	95.0812	7.8765	2.968
7.537	99.00	95.0799	7.8764	2.989
7.545	99.09	95.0787	7.8763	3.011
7.553	99.17	95.0774	7.8762	3.032
7.562	99.26	95.0762	7.8761	3.054
7.570	99.35	95.0749	7.8760	3.075
7.578	99.43	95.0737	7.8759	3.097
7.587	99.52	95.0725	7.8758	3.118
7.595	99.60	95.0712	7.8757	3.139
7.603	99.69	95.0700	7.8756	3.160
7.612	99.78	95.0688	7.8755	3.180
7.620	99.86	95.0676	7.8754	3.200
7.628	99.95	95.0664	7.8753	3.220
7.637	100.04	95.0653	7.8752	3.240
7.645	100.12	95.0641	7.8751	3.261
7.653	100.21	95.0629	7.8750	3.281
7.662	100.29	95.0618	7.8749	3.301
7.670	100.38	95.0606	7.8748	3.321
7.678	100.47	95.0595	7.8747	3.342
7.687	100.55	95.0584	7.8746	3.362
7.695	100.64	95.0572	7.8745	3.383
7.703	100.73	95.0561	7.8745	3.403
7.712	100.81	95.0550	7.8744	3.425
7.720	100.90	95.0538	7.8743	3.446
7.728	100.99	95.0527	7.8742	3.467
7.737	101.07	95.0516	7.8741	3.488
7.745	101.16	95.0505	7.8740	3.509
7.753	101.24	95.0494	7.8739	3.529
7.762	101.33	95.0482	7.8738	3.549
7.770	101.42	95.0471	7.8737	3.570
7.778	101.50	95.0460	7.8736	3.590
7.787	101.59	95.0450	7.8735	3.610
7.795	101.68	95.0439	7.8734	3.630
7.803	101.76	95.0428	7.8734	3.650
7.812	101.85	95.0417	7.8733	3.670
7.820	101.93	95.0407	7.8732	3.690
7.828	102.02	95.0396	7.8731	3.710
7.837	102.11	95.0385	7.8730	3.731
7.845	102.19	95.0375	7.8729	3.752
7.853	102.28	95.0365	7.8728	3.772
7.862	102.37	95.0354	7.8727	3.793
7.870	102.45	95.0344	7.8727	3.813
7.878	102.54	95.0333	7.8726	3.833
7.887	102.62	95.0323	7.8725	3.853
7.895	102.71	95.0313	7.8724	3.873
7.903	102.80	95.0303	7.8723	3.892
7.912	102.88	95.0293	7.8722	3.912
7.920	102.97	95.0283	7.8721	3.931
7.928	103.06	95.0273	7.8721	3.949
7.937	103.14	95.0263	7.8720	3.968
7.945	103.23	95.0253	7.8719	3.987
7.953	103.31	95.0244	7.8718	4.005
7.962	103.40	95.0234	7.8717	4.025
7.970	103.49	95.0225	7.8717	4.044
7.978	103.57	95.0215	7.8716	4.063
7.987	103.66	95.0206	7.8715	4.082
7.995	103.75	95.0196	7.8714	4.101
8.003	103.83	95.0187	7.8714	4.120
8.012	103.92	95.0178	7.8713	4.139
8.020	104.00	95.0169	7.8712	4.158
8.028	104.09	95.0160	7.8711	4.177
8.037	104.18	95.0151	7.8711	4.196
8.045	104.26	95.0142	7.8710	4.214
8.053	104.35	95.0133	7.8709	4.233
8.062	104.43	95.0124	7.8708	4.253
8.070	104.52	95.0115	7.8708	4.273
8.078	104.61	95.0107	7.8707	4.292
8.087	104.69	95.0098	7.8706	4.312
8.095	104.78	95.0089	7.8705	4.331
8.103	104.86	95.0081	7.8705	4.351
8.112	104.95	95.0072	7.8704	4.371
8.120	105.04	95.0063	7.8703	4.391
8.128	105.12	95.0055	7.8703	4.411
8.137	105.21	95.0046	7.8702	4.431
8.145	105.30	95.0038	7.8701	4.450
8.153	105.38	95.0029	7.8701	4.469
8.162	105.47	95.0021	7.8700	4.489
8.170	105.55	95.0013	7.8699	4.508
8.178	105.64	95.0004	7.8698	4.527
8.187	105.73	94.9996	7.8698	4.546
8.195	105.81	94.9988	7.8697	4.565
8.203	105.90	94.9980	7.8696	4.584
8.212	105.98	94.9972	7.8696	4.602
8.220	106.07	94.9964	7.8695	4.621
8.228	106.16	94.9957	7.8694	4.640
8.237	106.24	94.9949	7.8694	4.659
8.245	106.33	94.9941	7.8693	4.677

[step]
Isothermal 30.0 min
Time	Temperature	Weight	Weight	Heat Flow
min	°C	%	mg	mW
8.253	106.41	94.9933	7.8693	4.695
8.278	106.67	94.9911	7.8691	4.750
8.303	106.93	94.9888	7.8689	4.806
8.328	107.19	94.9866	7.8687	4.864
8.353	107.44	94.9844	7.8685	4.921
8.378	107.70	94.9822	7.8683	4.979
8.403	107.95	94.9801	7.8682	5.037
8.428	108.20	94.9781	7.8680	5.098
8.453	108.44	94.9760	7.8678	5.164
8.478	108.69	94.9740	7.8677	5.232
8.503	108.93	94.9720	7.8675	5.303
8.528	109.16	94.9700	7.8673	5.374
8.553	109.39	94.9680	7.8672	5.447
8.578	109.62	94.9660	7.8670	5.522
8.603	109.84	94.9641	7.8668	5.600
8.628	110.05	94.9622	7.8667	5.682
8.653	110.26	94.9603	7.8665	5.764
8.678	110.46	94.9584	7.8664	5.847
8.703	110.66	94.9565	7.8662	5.931
8.728	110.85	94.9547	7.8661	6.013
8.753	111.04	94.9529	7.8659	6.097
8.778	111.22	94.9512	7.8658	6.184
8.803	111.39	94.9495	7.8656	6.272
8.828	111.56	94.9478	7.8655	6.360
8.853	111.71	94.9461	7.8653	6.447
8.878	111.87	94.9444	7.8652	6.535
8.903	112.01	94.9427	7.8651	6.623
8.928	112.15	94.9411	7.8649	6.710
8.953	112.28	94.9395	7.8648	6.800
8.978	112.41	94.9379	7.8647	6.892
9.003	112.53	94.9364	7.8645	6.984
9.028	112.64	94.9349	7.8644	7.073
9.053	112.74	94.9334	7.8643	7.162
9.078	112.84	94.9320	7.8642	7.250
9.103	112.92	94.9306	7.8641	7.337
9.128	113.01	94.9292	7.8639	7.423
9.153	113.08	94.9278	7.8638	7.505
9.178	113.15	94.9263	7.8637	7.586
9.203	113.21	94.9250	7.8636	7.663
9.228	113.27	94.9237	7.8635	7.740
9.253	113.32	94.9224	7.8634	7.815
9.278	113.36	94.9211	7.8633	7.886
9.303	113.40	94.9198	7.8632	7.956
9.328	113.44	94.9185	7.8631	8.024
9.353	113.47	94.9173	7.8630	8.090
9.378	113.49	94.9162	7.8629	8.152
9.403	113.51	94.9150	7.8628	8.211
9.428	113.53	94.9138	7.8627	8.269
9.453	113.54	94.9127	7.8626	8.322
9.478	113.55	94.9116	7.8625	8.374
9.503	113.55	94.9106	7.8624	8.422
9.528	113.55	94.9095	7.8623	8.468
9.553	113.54	94.9085	7.8622	8.512
9.578	113.53	94.9075	7.8621	8.554
9.603	113.52	94.9065	7.8621	8.595
9.628	113.50	94.9055	7.8620	8.632
9.653	113.48	94.9046	7.8619	8.669
9.678	113.46	94.9036	7.8618	8.702
9.703	113.43	94.9027	7.8617	8.735
9.728	113.40	94.9018	7.8617	8.764
9.753	113.37	94.9009	7.8616	8.792
9.778	113.34	94.8999	7.8615	8.816
9.803	113.30	94.8990	7.8614	8.838
9.828	113.26	94.8980	7.8614	8.855
9.853	113.22	94.8971	7.8613	8.871
9.878	113.18	94.8963	7.8612	8.885
9.903	113.14	94.8955	7.8612	8.895
9.928	113.10	94.8947	7.8611	8.904
9.953	113.06	94.8939	7.8610	8.910
9.978	113.02	94.8932	7.8610	8.916
10.003	112.97	94.8925	7.8609	8.920
10.028	112.93	94.8919	7.8609	8.923
10.053	112.89	94.8912	7.8608	8.925
10.078	112.84	94.8906	7.8607	8.926
10.103	112.80	94.8901	7.8607	8.927
10.128	112.76	94.8896	7.8607	8.927
10.153	112.72	94.8891	7.8606	8.926
10.178	112.67	94.8887	7.8606	8.923
10.203	112.63	94.8883	7.8606	8.919
10.228	112.59	94.8878	7.8605	8.912
10.253	112.55	94.8874	7.8605	8.903
10.278	112.51	94.8870	7.8604	8.892
10.303	112.47	94.8866	7.8604	8.881
10.328	112.43	94.8862	7.8604	8.869
10.353	112.40	94.8859	7.8604	8.855
10.378	112.36	94.8855	7.8603	8.842
10.403	112.33	94.8852	7.8603	8.829
10.428	112.29	94.8848	7.8603	8.815
10.453	112.26	94.8845	7.8602	8.801
10.478	112.23	94.8842	7.8602	8.786
10.503	112.19	94.8839	7.8602	8.772
10.528	112.16	94.8836	7.8602	8.757
10.553	112.14	94.8833	7.8601	8.742
10.578	112.11	94.8830	7.8601	8.727
10.603	112.08	94.8827	7.8601	8.711
10.628	112.06	94.8825	7.8601	8.695
10.653	112.03	94.8823	7.8601	8.679
10.678	112.01	94.8821	7.8600	8.665
10.703	111.99	94.8819	7.8600	8.650
10.728	111.97	94.8817	7.8600	8.634
10.753	111.95	94.8815	7.8600	8.618
10.778	111.93	94.8813	7.8600	8.602
10.803	111.92	94.8811	7.8600	8.587
10.828	111.90	94.8809	7.8599	8.572
10.853	111.89	94.8807	7.8599	8.558
10.878	111.88	94.8805	7.8599	8.545
10.903	111.87	94.8803	7.8599	8.531
10.928	111.86	94.8802	7.8599	8.519
10.953	111.85	94.8801	7.8599	8.505
10.978	111.84	94.8800	7.8599	8.492
11.003	111.84	94.8798	7.8599	8.479
11.028	111.83	94.8797	7.8598	8.466
11.053	111.83	94.8795	7.8598	8.453
11.078	111.83	94.8793	7.8598	8.441
11.103	111.83	94.8792	7.8598	8.431
11.128	111.83	94.8789	7.8598	8.422
11.153	111.83	94.8787	7.8598	8.413
11.178	111.83	94.8786	7.8597	8.404
11.203	111.83	94.8785	7.8597	8.396
11.228	111.84	94.8784	7.8597	8.387
11.253	111.84	94.8784	7.8597	8.379
11.278	111.85	94.8783	7.8597	8.372
11.303	111.86	94.8782	7.8597	8.366
11.328	111.86	94.8781	7.8597	8.359
11.353	111.87	94.8780	7.8597	8.353
11.378	111.88	94.8780	7.8597	8.348
11.403	111.90	94.8779	7.8597	8.343
11.428	111.91	94.8778	7.8597	8.337
11.453	111.92	94.8777	7.8597	8.332
11.478	111.93	94.8776	7.8597	8.327
11.503	111.94	94.8775	7.8597	8.323
11.528	111.96	94.8775	7.8597	8.319
11.553	111.97	94.8774	7.8596	8.315
11.578	111.99	94.8773	7.8596	8.312
11.603	112.00	94.8772	7.8596	8.309
11.628	112.02	94.8772	7.8596	8.306
11.653	112.04	94.8771	7.8596	8.304
11.678	112.05	94.8771	7.8596	8.303
11.703	112.07	94.8770	7.8596	8.301
11.728	112.09	94.8770	7.8596	8.301
11.753	112.11	94.8769	7.8596	8.300
11.778	112.13	94.8768	7.8596	8.300
11.803	112.15	94.8767	7.8596	8.299
11.828	112.16	94.8766	7.8596	8.299
11.853	112.18	94.8765	7.8596	8.299
11.878	112.20	94.8764	7.8596	8.299
11.903	112.22	94.8763	7.8596	8.300
11.928	112.24	94.8762	7.8596	8.301
11.953	112.26	94.8761	7.8595	8.302
11.978	112.28	94.8761	7.8595	8.304
12.003	112.30	94.8760	7.8595	8.306
12.028	112.32	94.8760	7.8595	8.308
12.053	112.33	94.8760	7.8595	8.310
12.078	112.35	94.8760	7.8595	8.312
12.103	112.37	94.8759	7.8595	8.315
12.128	112.39	94.8759	7.8595	8.318
12.153	112.41	94.8758	7.8595	8.321
12.178	112.43	94.8758	7.8595	8.325
12.203	112.45	94.8757	7.8595	8.329
12.228	112.47	94.8756	7.8595	8.334
12.253	112.49	94.8755	7.8595	8.339
12.278	112.51	94.8755	7.8595	8.344
12.303	112.52	94.8755	7.8595	8.349
12.328	112.54	94.8755	7.8595	8.353
12.353	112.56	94.8755	7.8595	8.358
12.378	112.58	94.8754	7.8595	8.364
12.403	112.59	94.8754	7.8595	8.369
12.428	112.61	94.8754	7.8595	8.374
12.453	112.62	94.8754	7.8595	8.380
12.478	112.64	94.8754	7.8595	8.386
[...]
217.003	949.66	-0.1561	-0.0129	33.861
217.028	949.66	-0.1562	-0.0129	33.861
217.053	949.66	-0.1563	-0.0129	33.859
217.078	949.66	-0.1564	-0.0130	33.858
217.103	949.66	-0.1565	-0.0130	33.856
217.128	949.66	-0.1567	-0.0130	33.855
217.153	949.66	-0.1568	-0.0130	33.854
217.178	949.66	-0.1570	-0.0130	33.853
217.203	949.66	-0.1572	-0.0130	33.853
217.228	949.66	-0.1573	-0.0130	33.852
217.253	949.66	-0.1573	-0.0130	33.852
217.278	949.66	-0.1574	-0.0130	33.852
217.303	949.66	-0.1575	-0.0130	33.851
217.328	949.66	-0.1576	-0.0131	33.851
217.353	949.66	-0.1576	-0.0131	33.850
217.378	949.66	-0.1577	-0.0131	33.852
217.403	949.66	-0.1577	-0.0131	33.853
217.428	949.66	-0.1578	-0.0131	33.854
217.453	949.66	-0.1578	-0.0131	33.854
217.478	949.66	-0.1579	-0.0131	33.854
217.503	949.66	-0.1580	-0.0131	33.853
217.528	949.66	-0.1581	-0.0131	33.853
217.553	949.66	-0.1582	-0.0131	33.852
217.578	949.66	-0.1583	-0.0131	33.851
217.603	949.66	-0.1585	-0.0131	33.850
217.628	949.66	-0.1586	-0.0131	33.848
217.653	949.66	-0.1587	-0.0132	33.846
217.678	949.66	-0.1589	-0.0132	33.844
217.703	949.66	-0.1591	-0.0132	33.842
217.728	949.66	-0.1592	-0.0132	33.841
217.753	949.66	-0.1593	-0.0132	33.841
217.778	949.66	-0.1594	-0.0132	33.840
217.803	949.66	-0.1596	-0.0132	33.838
217.828	949.66	-0.1597	-0.0132	33.837
217.853	949.66	-0.1598	-0.0132	33.836
217.878	949.66	-0.1599	-0.0132	33.836
217.903	949.66	-0.1600	-0.0133	33.835
217.928	949.66	-0.1601	-0.0133	33.835
217.953	949.66	-0.1601	-0.0133	33.834
217.978	949.66	-0.1602	-0.0133	33.833
218.003	949.66	-0.1603	-0.0133	33.832
218.028	949.66	-0.1603	-0.0133	33.831
218.053	949.66	-0.1604	-0.0133	33.831
218.078	949.66	-0.1605	-0.0133	33.831
218.103	949.66	-0.1606	-0.0133	33.831
218.128	949.66	-0.1608	-0.0133	33.832
218.153	949.66	-0.1609	-0.0133	33.833
218.178	949.66	-0.1610	-0.0133	33.834
218.203	949.66	-0.1611	-0.0133	33.834
218.228	949.66	-0.1612	-0.0134	33.834
218.253	949.66	-0.1613	-0.0134	33.834
218.278	949.66	-0.1614	-0.0134	33.833
218.303	949.66	-0.1615	-0.0134	33.832
218.328	949.66	-0.1616	-0.0134	33.831
218.353	949.66	-0.1617	-0.0134	33.830
218.378	949.66	-0.1619	-0.0134	33.830
218.403	949.66	-0.1620	-0.0134	33.830
218.428	949.66	-0.1621	-0.0134	33.831
218.453	949.66	-0.1623	-0.0134	33.831
218.478	949.66	-0.1624	-0.0135	33.830
218.503	949.66	-0.1625	-0.0135	33.829
218.528	949.66	-0.1627	-0.0135	33.829
218.553	949.66	-0.1628	-0.0135	33.829
218.578	949.66	-0.1629	-0.0135	33.829
218.603	949.66	-0.1631	-0.0135	33.828
218.628	949.66	-0.1632	-0.0135	33.827
218.653	949.66	-0.1633	-0.0135	33.826
218.678	949.66	-0.1634	-0.0135	33.822
218.703	949.66	-0.1635	-0.0135	33.817
218.728	949.66	-0.1636	-0.0136	33.814
218.753	949.66	-0.1637	-0.0136	33.815
218.778	949.66	-0.1638	-0.0136	33.816
218.803	949.66	-0.1639	-0.0136	33.817
218.828	949.66	-0.1640	-0.0136	33.816
218.853	949.66	-0.1641	-0.0136	33.815
218.878	949.66	-0.1641	-0.0136	33.814
218.903	949.66	-0.1642	-0.0136	33.812
218.928	949.66	-0.1643	-0.0136	33.810
218.953	949.66	-0.1644	-0.0136	33.808
218.978	949.66	-0.1645	-0.0136	33.806
219.003	949.66	-0.1647	-0.0136	33.805
219.028	949.66	-0.1647	-0.0136	33.806
219.053	949.66	-0.1648	-0.0137	33.807
219.078	949.66	-0.1649	-0.0137	33.807
219.103	949.66	-0.1650	-0.0137	33.807
219.128	949.66	-0.1651	-0.0137	33.807
219.153	949.66	-0.1652	-0.0137	33.806
219.178	949.66	-0.1653	-0.0137	33.806
219.203	949.66	-0.1654	-0.0137	33.806
219.228	949.66	-0.1656	-0.0137	33.807
219.253	949.66	-0.1658	-0.0137	33.806
219.278	949.66	-0.1659	-0.0137	33.805
219.303	949.66	-0.1661	-0.0138	33.802
219.328	949.66	-0.1662	-0.0138	33.799
219.353	949.66	-0.1663	-0.0138	33.796
219.378	949.66	-0.1664	-0.0138	33.794
219.403	949.66	-0.1665	-0.0138	33.794
219.428	949.66	-0.1666	-0.0138	33.794
219.453	949.66	-0.1667	-0.0138	33.793
219.478	949.66	-0.1667	-0.0138	33.794
219.503	949.66	-0.1668	-0.0138	33.793
219.528	949.66	-0.1669	-0.0138	33.793
219.553	949.66	-0.1670	-0.0138	33.792
219.578	949.66	-0.1671	-0.0138	33.792
219.603	949.66	-0.1672	-0.0139	33.791
219.628	949.66	-0.1673	-0.0139	33.791
219.653	949.66	-0.1674	-0.0139	33.791
219.678	949.66	-0.1675	-0.0139	33.792
219.703	949.66	-0.1676	-0.0139	33.792
219.728	949.66	-0.1677	-0.0139	33.792
219.753	949.66	-0.1678	-0.0139	33.793
219.778	949.66	-0.1679	-0.0139	33.794
219.803	949.66	-0.1680	-0.0139	33.795
219.828	949.66	-0.1681	-0.0139	33.797
219.853	949.66	-0.1681	-0.0139	33.797
219.878	949.66	-0.1682	-0.0139	33.797
219.903	949.66	-0.1683	-0.0139	33.798
219.928	949.66	-0.1684	-0.0140	33.799
219.953	949.66	-0.1685	-0.0140	33.800
219.978	949.66	-0.1687	-0.0140	33.800
220.003	949.66	-0.1688	-0.0140	33.801
220.028	949.66	-0.1689	-0.0140	33.801
220.053	949.66	-0.1690	-0.0140	33.800
220.078	949.66	-0.1691	-0.0140	33.798
220.103	949.66	-0.1691	-0.0140	33.796
220.128	949.66	-0.1692	-0.0140	33.793
220.153	949.66	-0.1693	-0.0140	33.790
220.178	949.66	-0.1694	-0.0140	33.786
220.203	949.66	-0.1695	-0.0140	33.783
220.228	949.66	-0.1697	-0.0141	33.780
220.253	949.66	-0.1698	-0.0141	33.778
220.278	949.66	-0.1699	-0.0141	33.778
220.303	949.66	-0.1701	-0.0141	33.778
220.328	949.66	-0.1702	-0.0141	33.778
220.353	949.66	-0.1703	-0.0141	33.778
220.378	949.66	-0.1704	-0.0141	33.778
220.403	949.66	-0.1705	-0.0141	33.778
220.428	949.66	-0.1707	-0.0141	33.779
220.453	949.66	-0.1708	-0.0141	33.781
220.478	949.66	-0.1709	-0.0142	33.783
220.503	949.66	-0.1710	-0.0142	33.785
220.528	949.66	-0.1711	-0.0142	33.787
220.553	949.66	-0.1712	-0.0142	33.787
220.578	949.65	-0.1713	-0.0142	33.787
220.603	949.65	-0.1714	-0.0142	33.786
220.628	949.66	-0.1714	-0.0142	33.787
220.653	949.66	-0.1715	-0.0142	33.788
220.678	949.66	-0.1716	-0.0142	33.789
220.703	949.66	-0.1717	-0.0142	33.788
220.728	949.66	-0.1719	-0.0142	33.786
220.753	949.66	-0.1720	-0.0142	33.784
220.778	949.66	-0.1721	-0.0143	33.782
220.803	949.66	-0.1723	-0.0143	33.781
220.828	949.66	-0.1724	-0.0143	33.780
220.853	949.66	-0.1726	-0.0143	33.779
220.878	949.65	-0.1728	-0.0143	33.777
220.903	949.65	-0.1730	-0.0143	33.777
220.928	949.66	-0.1731	-0.0143	33.777
220.953	949.66	-0.1732	-0.0144	33.778
220.978	949.65	-0.1734	-0.0144	33.780
221.003	949.65	-0.1735	-0.0144	33.782
221.028	949.65	-0.1737	-0.0144	33.784
221.053	949.65	-0.1738	-0.0144	33.786
221.078	949.65	-0.1740	-0.0144	33.786
221.103	949.65	-0.1741	-0.0144	33.787
221.128	949.65	-0.1743	-0.0144	33.788
221.153	949.65	-0.1744	-0.0144	33.789
221.178	949.65	-0.1745	-0.0145	33.790
221.203	949.65	-0.1746	-0.0145	33.790
221.228	949.65	-0.1747	-0.0145	33.790
221.253	949.65	-0.1748	-0.0145	33.790
221.278	949.65	-0.1749	-0.0145	33.792
221.303	949.65	-0.1749	-0.0145	33.795
221.328	949.65	-0.1750	-0.0145	33.798
221.353	949.65	-0.1751	-0.0145	33.800
221.378	949.65	-0.1752	-0.0145	33.799
221.403	949.65	-0.1754	-0.0145	33.797
221.428	949.65	-0.1755	-0.0145	33.796
221.453	949.65	-0.1755	-0.0145	33.794
221.478	949.65	-0.1756	-0.0145	33.793
221.503	949.65	-0.1756	-0.0145	33.792
221.528	949.65	-0.1757	-0.0146	33.792
221.553	949.65	-0.1759	-0.0146	33.792
221.578	949.65	-0.1760	-0.0146	33.792
221.603	949.65	-0.1761	-0.0146	33.792
221.628	949.65	-0.1762	-0.0146	33.792
221.653	949.65	-0.1763	-0.0146	33.794
221.678	949.65	-0.1763	-0.0146	33.796
221.703	949.65	-0.1764	-0.0146	33.798
221.728	949.65	-0.1765	-0.0146	33.798
221.753	949.65	-0.1766	-0.0146	33.796
221.778	949.65	-0.1767	-0.0146	33.794
221.803	949.65	-0.1768	-0.0146	33.792
221.828	949.65	-0.1768	-0.0147	33.791
221.853	949.65	-0.1769	-0.0147	33.790
221.878	949.65	-0.1770	-0.0147	33.790
221.903	949.65	-0.1771	-0.0147	33.790
221.928	949.65	-0.1773	-0.0147	33.788
221.953	949.65	-0.1774	-0.0147	33.787
221.978	949.65	-0.1775	-0.0147	33.786
222.003	949.65	-0.1776	-0.0147	33.785
222.028	949.65	-0.1777	-0.0147	33.785
222.053	949.65	-0.1779	-0.0147	33.787
222.078	949.65	-0.1780	-0.0147	33.788
222.103	949.65	-0.1781	-0.0148	33.788
222.128	949.65	-0.1782	-0.0148	33.790
222.153	949.65	-0.1783	-0.0148	33.793
222.178	949.65	-0.1784	-0.0148	33.798
222.203	949.65	-0.1785	-0.0148	33.802
222.228	949.65	-0.1786	-0.0148	33.804
222.253	949.65	-0.1786	-0.0148	33.804
222.278	949.65	-0.1787	-0.0148	33.805
222.303	949.65	-0.1787	-0.0148	33.807
222.328	949.65	-0.1788	-0.0148	33.809
222.353	949.65	-0.1788	-0.0148	33.811
222.378	949.65	-0.1790	-0.0148	33.812
222.403	949.65	-0.1791	-0.0148	33.814
222.428	949.65	-0.1792	-0.0148	33.816
222.453	949.65	-0.1793	-0.0149	33.817
222.478	949.65	-0.1794	-0.0149	33.817
222.503	949.65	-0.1795	-0.0149	33.816
222.528	949.65	-0.1796	-0.0149	33.815
222.553	949.65	-0.1797	-0.0149	33.814
222.578	949.65	-0.1798	-0.0149	33.814
222.603	949.65	-0.1799	-0.0149	33.816
222.628	949.65	-0.1800	-0.0149	33.817
222.653	949.65	-0.1802	-0.0149	33.818
222.678	949.65	-0.1803	-0.0149	33.818
222.703	949.65	-0.1804	-0.0149	33.817
222.728	949.65	-0.1805	-0.0150	33.814
222.753	949.65	-0.1805	-0.0150	33.812
222.778	949.65	-0.1807	-0.0150	33.811
222.803	949.65	-0.1808	-0.0150	33.811
222.828	949.65	-0.1809	-0.0150	33.812
222.853	949.65	-0.1810	-0.0150	33.813
222.878	949.65	-0.1811	-0.0150	33.813
222.903	949.65	-0.1812	-0.0150	33.812
222.928	949.65	-0.1813	-0.0150	33.812
222.953	949.65	-0.1815	-0.0150	33.811
222.978	949.65	-0.1816	-0.0150	33.810
223.003	949.65	-0.1817	-0.0151	33.810
223.028	949.65	-0.1818	-0.0151	33.810
223.053	949.65	-0.1820	-0.0151	33.809
223.078	949.65	-0.1821	-0.0151	33.808
223.103	949.65	-0.1822	-0.0151	33.808
223.128	949.65	-0.1823	-0.0151	33.807
223.153	949.65	-0.1824	-0.0151	33.807
223.178	949.65	-0.1824	-0.0151	33.805
223.203	949.65	-0.1825	-0.0151	33.802
223.228	949.65	-0.1826	-0.0151	33.799
223.253	949.65	-0.1827	-0.0151	33.797
223.278	949.65	-0.1828	-0.0151	33.795
223.303	949.65	-0.1829	-0.0152	33.795
223.328	949.65	-0.1830	-0.0152	33.796
223.353	949.65	-0.1831	-0.0152	33.798
223.378	949.65	-0.1831	-0.0152	33.798
223.403	949.65	-0.1832	-0.0152	33.798
223.428	949.65	-0.1833	-0.0152	33.798
223.453	949.65	-0.1834	-0.0152	33.799
223.478	949.65	-0.1835	-0.0152	33.800
223.503	949.65	-0.1836	-0.0152	33.802
223.528	949.65	-0.1837	-0.0152	33.803
223.553	949.65	-0.1837	-0.0152	33.803
223.578	949.65	-0.1838	-0.0152	33.804
223.603	949.65	-0.1839	-0.0152	33.805
223.628	949.65	-0.1840	-0.0152	33.808
223.653	949.65	-0.1841	-0.0153	33.810
223.678	949.65	-0.1842	-0.0153	33.811
223.703	949.65	-0.1843	-0.0153	33.812
223.728	949.65	-0.1844	-0.0153	33.812
223.753	949.65	-0.1846	-0.0153	33.812
223.778	949.65	-0.1847	-0.0153	33.811
223.803	949.65	-0.1848	-0.0153	33.811
223.828	949.65	-0.1849	-0.0153	33.810
223.853	949.65	-0.1850	-0.0153	33.810
223.878	949.65	-0.1851	-0.0153	33.811
223.903	949.65	-0.1852	-0.0153	33.811
223.928	949.65	-0.1853	-0.0154	33.812
223.953	949.65	-0.1855	-0.0154	33.811
223.978	949.65	-0.1856	-0.0154	33.811
224.003	949.65	-0.1858	-0.0154	33.810
224.028	949.65	-0.1860	-0.0154	33.810
224.053	949.65	-0.1861	-0.0154	33.809
224.078	949.65	-0.1863	-0.0154	33.807
224.103	949.65	-0.1865	-0.0154	33.806
224.128	949.65	-0.1867	-0.0155	33.805
224.153	949.65	-0.1868	-0.0155	33.804
224.178	949.65	-0.1870	-0.0155	33.803
224.203	949.65	-0.1871	-0.0155	33.804
224.228	949.65	-0.1872	-0.0155	33.804
224.253	949.65	-0.1873	-0.0155	33.805
224.278	949.65	-0.1874	-0.0155	33.805
224.303	949.65	-0.1876	-0.0155	33.806
224.328	949.65	-0.1876	-0.0155	33.806
224.353	949.65	-0.1877	-0.0156	33.806
224.378	949.65	-0.1878	-0.0156	33.807
224.403	949.65	-0.1879	-0.0156	33.808
224.428	949.65	-0.1880	-0.0156	33.810
224.453	949.65	-0.1881	-0.0156	33.810
224.478	949.65	-0.1882	-0.0156	33.810
224.503	949.65	-0.1883	-0.0156	33.810
224.528	949.65	-0.1884	-0.0156	33.810
224.553	949.65	-0.1885	-0.0156	33.810
224.578	949.65	-0.1886	-0.0156	33.810
224.603	949.65	-0.1887	-0.0156	33.810
224.628	949.65	-0.1888	-0.0156	33.811
224.653	949.65	-0.1890	-0.0157	33.812
224.678	949.65	-0.1891	-0.0157	33.813
224.703	949.65	-0.1891	-0.0157	33.814
224.728	949.65	-0.1892	-0.0157	33.816
224.753	949.65	-0.1892	-0.0157	33.819
224.778	949.65	-0.1892	-0.0157	33.823
224.803	949.65	-0.1893	-0.0157	33.827
224.828	949.65	-0.1894	-0.0157	33.829
224.853	949.65	-0.1896	-0.0157	33.829
224.878	949.65	-0.1897	-0.0157	33.829
224.903	949.65	-0.1898	-0.0157	33.830
224.928	949.65	-0.1898	-0.0157	33.828
224.953	949.65	-0.1899	-0.0157	33.827
224.978	949.65	-0.1900	-0.0157	33.827
225.003	949.65	-0.1902	-0.0158	33.828
225.028	949.65	-0.1902	-0.0158	33.830
225.053	949.65	-0.1903	-0.0158	33.831
225.078	949.65	-0.1904	-0.0158	33.831
225.103	949.65	-0.1905	-0.0158	33.831
225.128	949.65	-0.1905	-0.0158	33.832
225.153	949.65	-0.1906	-0.0158	33.833
225.178	949.65	-0.1907	-0.0158	33.834
225.203	949.65	-0.1907	-0.0158	33.835
225.228	949.65	-0.1908	-0.0158	33.835
225.253	949.65	-0.1909	-0.0158	33.836
225.278	949.65	-0.1909	-0.0158	33.836
225.303	949.65	-0.1910	-0.0158	33.838
225.328	949.65	-0.1911	-0.0158	33.840
225.353	949.65	-0.1912	-0.0158	33.841
225.378	949.65	-0.1913	-0.0159	33.842
225.403	949.65	-0.1914	-0.0159	33.841
225.428	949.65	-0.1915	-0.0159	33.841
225.453	949.65	-0.1916	-0.0159	33.841
225.478	949.65	-0.1918	-0.0159	33.842
225.503	949.65	-0.1920	-0.0159	33.842
225.528	949.65	-0.1921	-0.0159	33.841
225.553	949.65	-0.1923	-0.0159	33.839
225.578	949.65	-0.1924	-0.0159	33.838
225.603	949.65	-0.1925	-0.0159	33.837
225.628	949.65	-0.1927	-0.0160	33.837
225.653	949.65	-0.1928	-0.0160	33.837
225.678	949.65	-0.1929	-0.0160	33.837
225.703	949.65	-0.1930	-0.0160	33.837
225.728	949.65	-0.1932	-0.0160	33.837
225.753	949.65	-0.1933	-0.0160	33.838
225.778	949.65	-0.1934	-0.0160	33.838
225.803	949.65	-0.1936	-0.0160	33.838
225.828	949.65	-0.1937	-0.0160	33.836
225.853	949.65	-0.1938	-0.0161	33.833
225.878	949.65	-0.1939	-0.0161	33.832
225.903	949.65	-0.1940	-0.0161	33.832
225.928	949.65	-0.1941	-0.0161	33.831
225.953	949.65	-0.1942	-0.0161	33.831
225.978	949.65	-0.1943	-0.0161	33.830
226.003	949.65	-0.1944	-0.0161	33.831
226.028	949.65	-0.1945	-0.0161	33.831
226.053	949.65	-0.1945	-0.0161	33.832
226.078	949.65	-0.1946	-0.0161	33.832
226.103	949.65	-0.1947	-0.0161	33.831
226.128	949.65	-0.1948	-0.0161	33.830
226.153	949.65	-0.1949	-0.0161	33.829
226.178	949.65	-0.1950	-0.0162	33.829
226.203	949.65	-0.1952	-0.0162	33.828
226.228	949.65	-0.1953	-0.0162	33.827
226.253	949.65	-0.1954	-0.0162	33.827
226.278	949.65	-0.1955	-0.0162	33.831
226.303	949.65	-0.1955	-0.0162	33.835
226.328	949.65	-0.1955	-0.0162	33.840
226.353	949.65	-0.1956	-0.0162	33.843
226.378	949.65	-0.1957	-0.0162	33.846
226.403	949.65	-0.1958	-0.0162	33.849
226.428	949.65	-0.1959	-0.0162	33.851
226.453	949.65	-0.1961	-0.0162	33.853
226.478	949.65	-0.1962	-0.0163	33.854
226.503	949.65	-0.1963	-0.0163	33.854
226.528	949.65	-0.1964	-0.0163	33.853
226.553	949.65	-0.1965	-0.0163	33.853
226.578	949.65	-0.1966	-0.0163	33.852
226.603	949.65	-0.1966	-0.0163	33.852
226.628	949.65	-0.1967	-0.0163	33.853
226.653	949.65	-0.1968	-0.0163	33.853
226.678	949.65	-0.1968	-0.0163	33.854
226.703	949.65	-0.1969	-0.0163	33.854
226.728	949.65	-0.1970	-0.0163	33.854
226.753	949.65	-0.1971	-0.0163	33.854
226.778	949.65	-0.1972	-0.0163	33.854
226.803	949.65	-0.1973	-0.0163	33.855
226.828	949.65	-0.1974	-0.0164	33.857
226.853	949.65	-0.1976	-0.0164	33.859
226.878	949.65	-0.1977	-0.0164	33.860
226.903	949.65	-0.1978	-0.0164	33.862
226.928	949.65	-0.1978	-0.0164	33.864
226.953	949.65	-0.1979	-0.0164	33.867
226.978	949.65	-0.1979	-0.0164	33.871
227.003	949.65	-0.1980	-0.0164	33.874
227.028	949.65	-0.1981	-0.0164	33.879
227.053	949.65	-0.1983	-0.0164	33.881
227.078	949.65	-0.1984	-0.0164	33.883
227.103	949.65	-0.1985	-0.0164	33.884
227.128	949.65	-0.1985	-0.0164	33.886
227.153	949.65	-0.1986	-0.0165	33.888
227.178	949.65	-0.1988	-0.0165	33.891
227.203	949.65	-0.1989	-0.0165	33.893
227.228	949.65	-0.1991	-0.0165	33.893
227.253	949.65	-0.1992	-0.0165	33.891
227.278	949.65	-0.1993	-0.0165	33.889
227.303	949.65	-0.1994	-0.0165	33.889
227.328	949.65	-0.1995	-0.0165	33.889
227.353	949.65	-0.1996	-0.0165	33.890
227.378	949.65	-0.1997	-0.0165	33.890
227.403	949.65	-0.1998	-0.0165	33.890
227.428	949.65	-0.1999	-0.0166	33.892
227.453	949.65	-0.2000	-0.0166	33.894
227.478	949.65	-0.2001	-0.0166	33.895
227.503	949.65	-0.2002	-0.0166	33.897
227.528	949.65	-0.2003	-0.0166	33.899
227.553	949.65	-0.2005	-0.0166	33.901
227.578	949.65	-0.2007	-0.0166	33.902
227.603	949.65	-0.2008	-0.0166	33.903
227.628	949.65	-0.2010	-0.0166	33.904
227.653	949.65	-0.2010	-0.0167	33.906
227.678	949.65	-0.2011	-0.0167	33.907
227.703	949.65	-0.2012	-0.0167	33.908
227.728	949.65	-0.2013	-0.0167	33.909
227.753	949.65	-0.2014	-0.0167	33.910
227.778	949.65	-0.2015	-0.0167	33.912
227.803	949.65	-0.2016	-0.0167	33.914
227.828	949.65	-0.2016	-0.0167	33.916
227.853	949.65	-0.2017	-0.0167	33.916
227.878	949.65	-0.2018	-0.0167	33.917
227.903	949.65	-0.2019	-0.0167	33.918
227.928	949.65	-0.2020	-0.0167	33.920
227.953	949.65	-0.2021	-0.0167	33.922
227.978	949.65	-0.2022	-0.0168	33.923
228.003	949.65	-0.2023	-0.0168	33.923
228.028	949.65	-0.2024	-0.0168	33.923
228.053	949.65	-0.2025	-0.0168	33.923
228.078	949.65	-0.2026	-0.0168	33.923
228.103	949.65	-0.2027	-0.0168	33.924
228.128	949.65	-0.2028	-0.0168	33.922
228.153	949.65	-0.2030	-0.0168	33.919
228.178	949.65	-0.2031	-0.0168	33.915
228.203	949.65	-0.2032	-0.0168	33.913
228.228	949.65	-0.2034	-0.0168	33.911
228.253	949.65	-0.2035	-0.0169	33.910
228.278	949.65	-0.2037	-0.0169	33.909
228.303	949.65	-0.2038	-0.0169	33.908
228.328	949.65	-0.2040	-0.0169	33.906
228.353	949.65	-0.2041	-0.0169	33.906
228.378	949.65	-0.2042	-0.0169	33.906
228.403	949.65	-0.2044	-0.0169	33.907
228.428	949.65	-0.2045	-0.0169	33.908
228.453	949.65	-0.2046	-0.0169	33.910
228.478	949.65	-0.2047	-0.0170	33.913
228.503	949.65	-0.2048	-0.0170	33.915
228.528	949.65	-0.2050	-0.0170	33.917
228.553	949.65	-0.2051	-0.0170	33.918
228.578	949.65	-0.2052	-0.0170	33.918
228.603	949.65	-0.2054	-0.0170	33.918
228.628	949.65	-0.2055	-0.0170	33.919
228.653	949.65	-0.2056	-0.0170	33.921
228.678	949.65	-0.2058	-0.0170	33.922
228.703	949.65	-0.2059	-0.0171	33.922
228.728	949.65	-0.2060	-0.0171	33.922
228.753	949.65	-0.2061	-0.0171	33.922
228.778	949.65	-0.2061	-0.0171	33.922
228.803	949.65	-0.2062	-0.0171	33.921
228.828	949.65	-0.2063	-0.0171	33.921
228.853	949.65	-0.2064	-0.0171	33.921
228.878	949.65	-0.2065	-0.0171	33.923
228.903	949.65	-0.2065	-0.0171	33.924
228.928	949.65	-0.2066	-0.0171	33.925
228.953	949.65	-0.2067	-0.0171	33.926
228.978	949.65	-0.2068	-0.0171	33.928
229.003	949.65	-0.2069	-0.0171	33.929
229.028	949.65	-0.2071	-0.0172	33.931
229.053	949.65	-0.2071	-0.0172	33.931
229.078	949.65	-0.2072	-0.0172	33.931
229.103	949.65	-0.2072	-0.0172	33.932
229.128	949.65	-0.2073	-0.0172	33.933
229.153	949.65	-0.2074	-0.0172	33.935
229.178	949.65	-0.2075	-0.0172	33.937
229.203	949.65	-0.2076	-0.0172	33.937
229.228	949.65	-0.2077	-0.0172	33.937
229.253	949.65	-0.2078	-0.0172	33.938
229.278	949.65	-0.2079	-0.0172	33.938
229.303	949.65	-0.2081	-0.0172	33.939
229.328	949.65	-0.2082	-0.0172	33.941
229.353	949.65	-0.2083	-0.0173	33.944
229.378	949.65	-0.2084	-0.0173	33.947
229.403	949.65	-0.2085	-0.0173	33.949
229.428	949.65	-0.2086	-0.0173	33.949
229.453	949.65	-0.2086	-0.0173	33.948
229.478	949.65	-0.2087	-0.0173	33.948
229.503	949.65	-0.2088	-0.0173	33.948
229.528	949.65	-0.2089	-0.0173	33.949
229.553	949.65	-0.2090	-0.0173	33.950
229.578	949.65	-0.2091	-0.0173	33.950
229.603	949.65	-0.2092	-0.0173	33.949
229.628	949.65	-0.2092	-0.0173	33.949
229.653	949.65	-0.2093	-0.0173	33.949
229.678	949.65	-0.2094	-0.0173	33.949
229.703	949.65	-0.2095	-0.0174	33.950
229.728	949.65	-0.2096	-0.0174	33.950
229.753	949.65	-0.2097	-0.0174	33.950
229.778	949.65	-0.2098	-0.0174	33.951
229.803	949.65	-0.2098	-0.0174	33.952
229.828	949.65	-0.2099	-0.0174	33.953
229.853	949.65	-0.2099	-0.0174	33.953
229.878	949.65	-0.2100	-0.0174	33.954
229.903	949.65	-0.2101	-0.0174	33.956
229.928	949.65	-0.2102	-0.0174	33.957
229.953	949.65	-0.2103	-0.0174	33.958
229.978	949.65	-0.2104	-0.0174	33.957
230.003	949.65	-0.2106	-0.0174	33.956
230.028	949.65	-0.2107	-0.0175	33.953
230.053	949.65	-0.2108	-0.0175	33.951
230.078	949.65	-0.2110	-0.0175	33.950
230.103	949.65	-0.2111	-0.0175	33.949
230.128		-0.2113	-0.0175
230.145		-0.2114	-0.0175