File: example/data/SDb_2.txt
Time	Temperature	Weight	Weight	Heat Flow
min	°C	%	mg	mW
0.003		100.0132	5.6265
0.012		100.0352	5.6278
0.020		100.0634	5.6294
0.028		100.0960	5.6312
0.037		100.1295	5.6331
0.045	25.46	100.1618	5.6349	-22.409
0.053	25.54	100.1911	5.6366	-22.365
0.062	25.62	100.2161	5.6380	-22.321
0.070	25.71	100.2356	5.6391	-22.279
0.078	25.79	100.2497	5.6399	-22.237
0.087	25.87	100.2591	5.6404	-22.197
0.095	25.95	100.2637	5.6406	-22.158
0.103	26.03	100.2643	5.6407	-22.120
0.112	26.11	100.2637	5.6406	-22.082
0.120	26.19	100.2630	5.6406	-22.045
0.128	26.26	100.2623	5.6406	-22.009
0.137	26.34	100.2616	5.6405	-21.974
0.145	26.42	100.2605	5.6405	-21.940
0.153	26.50	100.2589	5.6404	-21.906
0.162	26.57	100.2570	5.6403	-21.872
0.170	26.65	100.2547	5.6401	-21.840
0.178	26.72	100.2522	5.6400	-21.807
0.187	26.80	100.2492	5.6398	-21.775
0.195	26.87	100.2455	5.6396	-21.744
0.203	26.95	100.2412	5.6394	-21.713
0.212	27.02	100.2363	5.6391	-21.682
0.220	27.10	100.2310	5.6388	-21.652
0.228	27.17	100.2253	5.6385	-21.623
0.237	27.24	100.2196	5.6382	-21.595
0.245	27.32	100.2137	5.6378	-21.567
0.253	27.39	100.2077	5.6375	-21.540
0.262	27.46	100.2014	5.6371	-21.513
0.270	27.53	100.1950	5.6368	-21.486
0.278	27.60	100.1883	5.6364	-21.460
0.287	27.67	100.1814	5.6360	-21.435
0.295	27.74	100.1743	5.6356	-21.410
0.303	27.81	100.1670	5.6352	-21.385
0.312	27.88	100.1596	5.6348	-21.360
0.320	27.95	100.1520	5.6344	-21.336
0.328	28.01	100.1441	5.6339	-21.312
0.337	28.08	100.1361	5.6335	-21.287
0.345	28.15	100.1280	5.6330	-21.263
0.353	28.21	100.1196	5.6325	-21.240
0.362	28.28	100.1111	5.6321	-21.217
0.370	28.35	100.1024	5.6316	-21.193
0.378	28.41	100.0936	5.6311	-21.171
0.387	28.48	100.0846	5.6306	-21.148
0.395	28.54	100.0755	5.6301	-21.126
0.403	28.61	100.0662	5.6295	-21.103
0.412	28.67	100.0568	5.6290	-21.082
0.420	28.73	100.0472	5.6285	-21.061
0.428	28.80	100.0376	5.6279	-21.039
0.437	28.86	100.0277	5.6274	-21.019
0.445	28.92	100.0178	5.6268	-20.998
0.453	28.98	100.0077	5.6262	-20.978
0.462	29.04	99.9975	5.6257	-20.957
0.470	29.11	99.9872	5.6251	-20.937
0.478	29.17	99.9768	5.6245	-20.917
0.487	29.23	99.9663	5.6239	-20.899
0.495	29.29	99.9557	5.6233	-20.879
0.503	29.35	99.9450	5.6227	-20.859
0.512	29.41	99.9342	5.6221	-20.840
0.520	29.46	99.9234	5.6215	-20.820
0.528	29.52	99.9124	5.6209	-20.801
0.537	29.58	99.9014	5.6203	-20.782
0.545	29.64	99.8903	5.6196	-20.763
0.553	29.70	99.8791	5.6190	-20.744
0.562	29.75	99.8679	5.6184	-20.725
0.570	29.81	99.8566	5.6177	-20.706
0.578	29.87	99.8452	5.6171	-20.687
0.587	29.92	99.8338	5.6165	-20.668
0.595	29.98	99.8223	5.6158	-20.650
0.603	30.03	99.8108	5.6152	-20.631
0.612	30.09	99.7992	5.6145	-20.612
0.620	30.14	99.7876	5.6139	-20.593
0.628	30.20	99.7759	5.6132	-20.575
0.637	30.25	99.7642	5.6125	-20.556
0.645	30.30	99.7525	5.6119	-20.538
0.653	30.36	99.7407	5.6112	-20.520
0.662	30.41	99.7289	5.6106	-20.501
0.670	30.46	99.7170	5.6099	-20.482
0.678	30.52	99.7051	5.6092	-20.464
0.687	30.57	99.6933	5.6085	-20.446
0.695	30.62	99.6813	5.6079	-20.428
0.703	30.67	99.6694	5.6072	-20.410
0.712	30.72	99.6574	5.6065	-20.392
0.720	30.77	99.6454	5.6059	-20.375
0.728	30.82	99.6335	5.6052	-20.356
0.737	30.87	99.6215	5.6045	-20.338
0.745	30.92	99.6095	5.6038	-20.320
0.753	30.97	99.5974	5.6032	-20.301
0.762	31.02	99.5854	5.6025	-20.283
0.770	31.07	99.5734	5.6018	-20.264
0.778	31.12	99.5614	5.6011	-20.246
0.787	31.17	99.5494	5.6005	-20.228
0.795	31.22	99.5374	5.5998	-20.209
0.803	31.27	99.5255	5.5991	-20.191
0.812	31.32	99.5135	5.5984	-20.173
0.820	31.37	99.5015	5.5978	-20.155
0.828	31.42	99.4896	5.5971	-20.137
0.837	31.47	99.4777	5.5964	-20.120
0.845	31.51	99.4658	5.5958	-20.102
0.853	31.56	99.4539	5.5951	-20.085
0.862	31.61	99.4421	5.5944	-20.066
0.870	31.66	99.4302	5.5938	-20.048
0.878	31.70	99.4184	5.5931	-20.031
0.887	31.75	99.4066	5.5924	-20.013
0.895	31.80	99.3948	5.5918	-19.994
0.903	31.85	99.3830	5.5911	-19.976
0.912	31.89	99.3712	5.5904	-19.958
0.920	31.94	99.3595	5.5898	-19.940
0.928	31.99	99.3478	5.5891	-19.922
0.937	32.04	99.3361	5.5885	-19.904
0.945	32.08	99.3244	5.5878	-19.886
0.953	32.13	99.3128	5.5871	-19.868
0.962	32.18	99.3012	5.5865	-19.850
0.970	32.23	99.2896	5.5858	-19.832
0.978	32.28	99.2781	5.5852	-19.814
0.987	32.33	99.2666	5.5845	-19.796
0.995	32.38	99.2551	5.5839	-19.778
1.003	32.43	99.2437	5.5833	-19.759
1.012	32.48	99.2324	5.5826	-19.740
1.020	32.53	99.2210	5.5820	-19.722
1.028	32.58	99.2097	5.5813	-19.703
1.037	32.63	99.1985	5.5807	-19.685
1.045	32.68	99.1873	5.5801	-19.665
1.053	32.73	99.1761	5.5795	-19.646
1.062	32.78	99.1650	5.5788	-19.626
1.070	32.83	99.1540	5.5782	-19.606
1.078	32.88	99.1429	5.5776	-19.586
1.087	32.93	99.1319	5.5770	-19.567
1.095	32.98	99.1210	5.5764	-19.546
1.103	33.03	99.1101	5.5757	-19.526
1.112	33.08	99.0993	5.5751	-19.505
1.120	33.14	99.0885	5.5745	-19.485
1.128	33.19	99.0777	5.5739	-19.466
1.137	33.24	99.0669	5.5733	-19.445
1.145	33.29	99.0562	5.5727	-19.425
1.153	33.35	99.0456	5.5721	-19.405
1.162	33.40	99.0349	5.5715	-19.385
1.170	33.45	99.0243	5.5709	-19.365
1.178	33.51	99.0137	5.5703	-19.345
1.187	33.56	99.0031	5.5697	-19.325
1.195	33.62	98.9926	5.5691	-19.304
1.203	33.67	98.9821	5.5685	-19.283
1.212	33.73	98.9716	5.5679	-19.262
1.220	33.78	98.9612	5.5674	-19.241
1.228	33.84	98.9507	5.5668	-19.220
1.237	33.89	98.9404	5.5662	-19.198
1.245	33.95	98.9300	5.5656	-19.176
1.253	34.00	98.9197	5.5650	-19.153
1.262	34.06	98.9094	5.5645	-19.130
1.270	34.12	98.8992	5.5639	-19.108
1.278	34.18	98.8889	5.5633	-19.086
1.287	34.23	98.8788	5.5627	-19.063
1.295	34.29	98.8686	5.5622	-19.040
1.303	34.35	98.8585	5.5616	-19.016
1.312	34.41	98.8484	5.5610	-18.992
1.320	34.47	98.8383	5.5605	-18.969
1.328	34.52	98.8283	5.5599	-18.946
1.337	34.58	98.8182	5.5593	-18.923
1.345	34.64	98.8083	5.5588	-18.900
1.353	34.70	98.7983	5.5582	-18.876
1.362	34.76	98.7883	5.5576	-18.852
1.370	34.82	98.7783	5.5571	-18.828
1.378	34.88	98.7684	5.5565	-18.804
1.387	34.94	98.7585	5.5560	-18.781
1.395	35.01	98.7486	5.5554	-18.757
1.403	35.07	98.7387	5.5548	-18.732
1.412	35.13	98.7289	5.5543	-18.707
1.420	35.19	98.7190	5.5537	-18.681
1.428	35.25	98.7092	5.5532	-18.656
1.437	35.32	98.6994	5.5526	-18.631
1.445	35.38	98.6897	5.5521	-18.606
1.453	35.44	98.6799	5.5515	-18.581
1.462	35.51	98.6702	5.5510	-18.555
1.470	35.57	98.6605	5.5504	-18.528
1.478	35.64	98.6508	5.5499	-18.502
1.487	35.70	98.6411	5.5494	-18.476
1.495	35.77	98.6315	5.5488	-18.450
1.503	35.83	98.6218	5.5483	-18.424
1.512	35.90	98.6122	5.5477	-18.397
1.520	35.96	98.6026	5.5472	-18.370
1.528	36.03	98.5930	5.5466	-18.343
1.537	36.09	98.5834	5.5461	-18.316
1.545	36.16	98.5739	5.5456	-18.289
1.553	36.23	98.5643	5.5450	-18.262
1.562	36.30	98.5548	5.5445	-18.234
1.570	36.36	98.5453	5.5440	-18.206
1.578	36.43	98.5359	5.5434	-18.178
1.587	36.50	98.5264	5.5429	-18.150
1.595	36.57	98.5170	5.5424	-18.122
1.603	36.64	98.5076	5.5418	-18.094
1.612	36.71	98.4982	5.5413	-18.066
1.620	36.78	98.4888	5.5408	-18.038
1.628	36.85	98.4794	5.5403	-18.009
1.637	36.92	98.4701	5.5397	-17.980
1.645	36.99	98.4608	5.5392	-17.952
1.653	37.06	98.4514	5.5387	-17.924
1.662	37.13	98.4421	5.5382	-17.895
1.670	37.20	98.4328	5.5376	-17.866
1.678	37.27	98.4236	5.5371	-17.836
1.687	37.35	98.4143	5.5366	-17.806
1.695	37.42	98.4050	5.5361	-17.776
1.703	37.49	98.3958	5.5356	-17.746
1.712	37.56	98.3866	5.5350	-17.716
1.720	37.64	98.3774	5.5345	-17.686
1.728	37.71	98.3682	5.5340	-17.656
1.737	37.78	98.3591	5.5335	-17.625
1.745	37.86	98.3499	5.5330	-17.595
1.753	37.93	98.3408	5.5325	-17.564
1.762	38.01	98.3316	5.5319	-17.534
1.770	38.08	98.3225	5.5314	-17.503
1.778	38.16	98.3134	5.5309	-17.472
1.787	38.23	98.3043	5.5304	-17.441
1.795	38.31	98.2952	5.5299	-17.409
1.803	38.38	98.2861	5.5294	-17.378
1.812	38.46	98.2771	5.5289	-17.346
1.820	38.54	98.2680	5.5284	-17.315
1.828	38.61	98.2590	5.5279	-17.283
1.837	38.69	98.2499	5.5274	-17.250
1.845	38.77	98.2409	5.5268	-17.217
1.853	38.84	98.2319	5.5263	-17.185
1.862	38.92	98.2229	5.5258	-17.153
1.870	39.00	98.2140	5.5253	-17.120
1.878	39.08	98.2050	5.5248	-17.087
1.887	39.16	98.1961	5.5243	-17.054
1.895	39.24	98.1872	5.5238	-17.021
1.903	39.32	98.1782	5.5233	-16.988
1.912	39.40	98.1693	5.5228	-16.956
1.920	39.47	98.1604	5.5223	-16.924
1.928	39.55	98.1516	5.5218	-16.891
1.937	39.63	98.1427	5.5213	-16.858
1.945	39.72	98.1338	5.5208	-16.825
1.953	39.80	98.1250	5.5203	-16.792
1.962	39.88	98.1162	5.5198	-16.759
1.970	39.96	98.1073	5.5193	-16.724
1.978	40.04	98.0985	5.5188	-16.690
1.987	40.12	98.0897	5.5183	-16.656
1.995	40.20	98.0809	5.5178	-16.622
2.003	40.28	98.0721	5.5173	-16.587
2.012	40.36	98.0634	5.5169	-16.552
2.020	40.45	98.0546	5.5164	-16.517
2.028	40.53	98.0459	5.5159	-16.482
2.037	40.61	98.0371	5.5154	-16.447
2.045	40.69	98.0284	5.5149	-16.411
2.053	40.78	98.0197	5.5144	-16.377
2.062	40.86	98.0110	5.5139	-16.341
2.070	40.94	98.0023	5.5134	-16.306
2.078	41.03	97.9936	5.5129	-16.271
2.087	41.11	97.9849	5.5124	-16.235
2.095	41.20	97.9762	5.5120	-16.200
2.103	41.28	97.9675	5.5115	-16.164
2.112	41.37	97.9589	5.5110	-16.128
2.120	41.45	97.9502	5.5105	-16.091
2.128	41.53	97.9416	5.5100	-16.055
2.137	41.62	97.9329	5.5095	-16.019
2.145	41.70	97.9243	5.5090	-15.983
2.153	41.79	97.9157	5.5085	-15.947
2.162	41.87	97.9071	5.5081	-15.910
2.170	41.96	97.8985	5.5076	-15.874
2.178	42.05	97.8899	5.5071	-15.837
2.187	42.13	97.8813	5.5066	-15.800
2.195	42.22	97.8728	5.5061	-15.764
2.203	42.30	97.8642	5.5057	-15.727
2.212	42.39	97.8557	5.5052	-15.689
2.220	42.48	97.8472	5.5047	-15.651
2.228	42.56	97.8388	5.5042	-15.614
2.237	42.65	97.8303	5.5037	-15.576
2.245	42.74	97.8219	5.5033	-15.538
2.253	42.83	97.8134	5.5028	-15.500
2.262	42.91	97.8050	5.5023	-15.462
2.270	43.00	97.7966	5.5018	-15.425
2.278	43.09	97.7882	5.5014	-15.387
2.287	43.18	97.7798	5.5009	-15.349
2.295	43.26	97.7714	5.5004	-15.312
2.303	43.35	97.7630	5.5000	-15.274
2.312	43.44	97.7546	5.4995	-15.236
2.320	43.53	97.7462	5.4990	-15.198
2.328	43.62	97.7378	5.4985	-15.160
2.337	43.71	97.7294	5.4981	-15.122
2.345	43.79	97.7210	5.4976	-15.083
2.353	43.88	97.7127	5.4971	-15.045
2.362	43.97	97.7043	5.4967	-15.006
2.370	44.06	97.6959	5.4962	-14.967
2.378	44.15	97.6876	5.4957	-14.927
2.387	44.24	97.6792	5.4952	-14.888
2.395	44.33	97.6709	5.4948	-14.849
2.403	44.42	97.6626	5.4943	-14.809
2.412	44.51	97.6542	5.4938	-14.770
2.420	44.60	97.6460	5.4934	-14.729
2.428	44.69	97.6377	5.4929	-14.690
2.437	44.78	97.6294	5.4924	-14.651
2.445	44.87	97.6211	5.4920	-14.612
2.453	44.96	97.6129	5.4915	-14.572
2.462	45.05	97.6047	5.4910	-14.533
2.470	45.14	97.5965	5.4906	-14.494
2.478	45.23	97.5883	5.4901	-14.455
2.487	45.32	97.5801	5.4897	-14.415
2.495	45.41	97.5720	5.4892	-14.376
2.503	45.50	97.5638	5.4888	-14.337
2.512	45.59	97.5557	5.4883	-14.297
2.520	45.68	97.5475	5.4878	-14.258
2.528	45.77	97.5394	5.4874	-14.218
2.537	45.86	97.5313	5.4869	-14.179
2.545	45.95	97.5232	5.4865	-14.139
2.553	46.04	97.5151	5.4860	-14.099
2.562	46.14	97.5070	5.4856	-14.058
2.570	46.23	97.4989	5.4851	-14.018
2.578	46.32	97.4908	5.4846	-13.978
2.587	46.41	97.4828	5.4842	-13.938
2.595	46.50	97.4747	5.4837	-13.897
2.603	46.59	97.4667	5.4833	-13.856
2.612	46.68	97.4587	5.4828	-13.815
2.620	46.78	97.4507	5.4824	-13.774
2.628	46.87	97.4428	5.4819	-13.733
2.637	46.96	97.4348	5.4815	-13.692
2.645	47.05	97.4268	5.4810	-13.650
2.653	47.14	97.4189	5.4806	-13.609
2.662	47.23	97.4110	5.4802	-13.567
2.670	47.32	97.4031	5.4797	-13.526
2.678	47.42	97.3952	5.4793	-13.485
2.687	47.51	97.3873	5.4788	-13.444
2.695	47.60	97.3794	5.4784	-13.403
2.703	47.69	97.3716	5.4779	-13.362
2.712	47.78	97.3637	5.4775	-13.321
2.720	47.88	97.3559	5.4771	-13.279
2.728	47.97	97.3481	5.4766	-13.238
2.737	48.06	97.3403	5.4762	-13.196
2.745	48.15	97.3325	5.4757	-13.154
2.753	48.24	97.3247	5.4753	-13.113
2.762	48.34	97.3169	5.4749	-13.070
2.770	48.43	97.3091	5.4744	-13.029
2.778	48.52	97.3014	5.4740	-12.987
2.787	48.61	97.2937	5.4736	-12.946
2.795	48.70	97.2860	5.4731	-12.904
2.803	48.80	97.2783	5.4727	-12.862
2.812	48.89	97.2706	5.4723	-12.820
2.820	48.98	97.2630	5.4718	-12.778
2.828	49.07	97.2554	5.4714	-12.737
2.837	49.16	97.2477	5.4710	-12.695
2.845	49.26	97.2401	5.4705	-12.654
2.853	49.35	97.2325	5.4701	-12.611
2.862	49.44	97.2249	5.4697	-12.569
2.870	49.53	97.2173	5.4693	-12.527
2.878	49.63	97.2098	5.4688	-12.485
2.887	49.72	97.2022	5.4684	-12.443
2.895	49.81	97.1947	5.4680	-12.401
2.903	49.90	97.1872	5.4676	-12.360
2.912	50.00	97.1797	5.4671	-12.318
2.920	50.09	97.1722	5.4667	-12.277
2.928	50.18	97.1648	5.4663	-12.235
2.937	50.27	97.1573	5.4659	-12.193
2.945	50.36	97.1499	5.4655	-12.151
2.953	50.46	97.1425	5.4650	-12.110
2.962	50.55	97.1351	5.4646	-12.068
2.970	50.64	97.1277	5.4642	-12.026
2.978	50.73	97.1204	5.4638	-11.984
2.987	50.82	97.1130	5.4634	-11.941
2.995	50.92	97.1057	5.4630	-11.899
3.003	51.01	97.0984	5.4626	-11.858
3.012	51.10	97.0911	5.4622	-11.815
3.020	51.19	97.0838	5.4617	-11.773
3.028	51.28	97.0766	5.4613	-11.731
3.037	51.38	97.0694	5.4609	-11.687
3.045	51.47	97.0621	5.4605	-11.646
3.053	51.56	97.0550	5.4601	-11.604
3.062	51.65	97.0478	5.4597	-11.562
3.070	51.74	97.0406	5.4593	-11.520
3.078	51.84	97.0335	5.4589	-11.478
3.087	51.93	97.0263	5.4585	-11.435
3.095	52.02	97.0192	5.4581	-11.394
3.103	52.11	97.0121	5.4577	-11.352
3.112	52.20	97.0050	5.4573	-11.310
3.120	52.29	96.9979	5.4569	-11.268
3.128	52.39	96.9909	5.4565	-11.226
3.137	52.48	96.9838	5.4561	-11.183
3.145	52.57	96.9768	5.4557	-11.141
3.153	52.66	96.9698	5.4553	-11.099
3.162	52.75	96.9628	5.4549	-11.057
3.170	52.84	96.9559	5.4545	-11.015
3.178	52.94	96.9489	5.4542	-10.973
3.187	53.03	96.9420	5.4538	-10.930
3.195	53.12	96.9351	5.4534	-10.889
3.203	53.21	96.9282	5.4530	-10.847
3.212	53.30	96.9213	5.4526	-10.805
3.220	53.39	96.9145	5.4522	-10.763
3.228	53.49	96.9077	5.4518	-10.721
3.237	53.58	96.9009	5.4515	-10.678
3.245	53.67	96.8941	5.4511	-10.636
3.253	53.76	96.8874	5.4507	-10.595
3.262	53.85	96.8806	5.4503	-10.553
3.270	53.94	96.8739	5.4499	-10.511
3.278	54.03	96.8672	5.4496	-10.469
3.287	54.12	96.8605	5.4492	-10.427
3.295	54.22	96.8539	5.4488	-10.386
3.303	54.31	96.8472	5.4484	-10.344
3.312	54.40	96.8406	5.4481	-10.303
3.320	54.49	96.8340	5.4477	-10.262
3.328	54.58	96.8275	5.4473	-10.220
3.337	54.67	96.8209	5.4470	-10.178
3.345	54.76	96.8143	5.4466	-10.136
3.353	54.85	96.8078	5.4462	-10.095
3.362	54.94	96.8013	5.4459	-10.053
3.370	55.03	96.7948	5.4455	-10.011
3.378	55.12	96.7884	5.4451	-9.969
3.387	55.21	96.7819	5.4448	-9.928
3.395	55.30	96.7755	5.4444	-9.887
3.403	55.40	96.7691	5.4440	-9.845
3.412	55.49	96.7627	5.4437	-9.804
3.420	55.58	96.7564	5.4433	-9.762
3.428	55.67	96.7500	5.4430	-9.721
3.437	55.76	96.7437	5.4426	-9.681
3.445	55.85	96.7375	5.4423	-9.639
3.453	55.94	96.7312	5.4419	-9.598
3.462	56.03	96.7250	5.4416	-9.557
3.470	56.12	96.7188	5.4412	-9.514
3.478	56.21	96.7127	5.4409	-9.472
3.487	56.30	96.7065	5.4405	-9.430
3.495	56.39	96.7004	5.4402	-9.389
3.503	56.48	96.6942	5.4398	-9.347
3.512	56.57	96.6882	5.4395	-9.304
3.520	56.66	96.6821	5.4391	-9.262
3.528	56.75	96.6760	5.4388	-9.222
3.537	56.84	96.6700	5.4385	-9.181
3.545	56.93	96.6640	5.4381	-9.140
3.553	57.02	96.6580	5.4378	-9.099
3.562	57.11	96.6521	5.4375	-9.059
3.570	57.20	96.6462	5.4371	-9.018
3.578	57.29	96.6403	5.4368	-8.977
3.587	57.38	96.6344	5.4365	-8.937
3.595	57.47	96.6286	5.4361	-8.897
3.603	57.55	96.6227	5.4358	-8.857
3.612	57.64	96.6169	5.4355	-8.816
3.620	57.73	96.6111	5.4352	-8.775
3.628	57.82	96.6054	5.4348	-8.735
3.637	57.91	96.5996	5.4345	-8.694
3.645	58.00	96.5939	5.4342	-8.654
3.653	58.09	96.5882	5.4339	-8.614
3.662	58.18	96.5825	5.4335	-8.573
3.670	58.27	96.5769	5.4332	-8.532
3.678	58.36	96.5713	5.4329	-8.492
3.687	58.45	96.5657	5.4326	-8.451
3.695	58.54	96.5601	5.4323	-8.410
3.703	58.62	96.5545	5.4320	-8.369
3.712	58.71	96.5490	5.4317	-8.328
3.720	58.80	96.5435	5.4313	-8.288
3.728	58.89	96.5380	5.4310	-8.248
3.737	58.98	96.5325	5.4307	-8.207
3.745	59.07	96.5271	5.4304	-8.166
3.753	59.16	96.5217	5.4301	-8.126
3.762	59.24	96.5163	5.4298	-8.086
3.770	59.33	96.5109	5.4295	-8.046
3.778	59.42	96.5056	5.4292	-8.007
3.787	59.51	96.5003	5.4289	-7.967
3.795	59.60	96.4950	5.4286	-7.928
3.803	59.69	96.4897	5.4283	-7.888
3.812	59.78	96.4845	5.4280	-7.848
3.820	59.87	96.4793	5.4277	-7.809
3.828	59.95	96.4741	5.4274	-7.770
3.837	60.04	96.4689	5.4272	-7.731
3.845	60.13	96.4637	5.4269	-7.691
3.853	60.22	96.4586	5.4266	-7.652
3.862	60.30	96.4535	5.4263	-7.612
3.870	60.39	96.4484	5.4260	-7.573
3.878	60.48	96.4433	5.4257	-7.533
3.887	60.57	96.4383	5.4254	-7.494
3.895	60.66	96.4333	5.4251	-7.455
3.903	60.74	96.4283	5.4249	-7.415
3.912	60.83	96.4233	5.4246	-7.375
3.920	60.92	96.4183	5.4243	-7.336
3.928	61.01	96.4133	5.4240	-7.297
3.937	61.09	96.4084	5.4237	-7.257
3.945	61.18	96.4035	5.4235	-7.219
3.953	61.27	96.3986	5.4232	-7.179
3.962	61.36	96.3938	5.4229	-7.141
3.970	61.45	96.3889	5.4227	-7.103
3.978	61.53	96.3841	5.4224	-7.064
3.987	61.62	96.3793	5.4221	-7.025
3.995	61.71	96.3746	5.4218	-6.987
4.003	61.80	96.3698	5.4216	-6.949
4.012	61.88	96.3651	5.4213	-6.911
4.020	61.97	96.3605	5.4211	-6.872
4.028	62.06	96.3558	5.4208	-6.835
4.037	62.14	96.3512	5.4205	-6.797
4.045	62.23	96.3466	5.4203	-6.759
4.053	62.32	96.3420	5.4200	-6.720
4.062	62.41	96.3375	5.4198	-6.683
4.070	62.49	96.3330	5.4195	-6.645
4.078	62.58	96.3285	5.4193	-6.607
4.087	62.67	96.3240	5.4190	-6.569
4.095	62.75	96.3195	5.4187	-6.531
4.103	62.84	96.3151	5.4185	-6.493
4.112	62.93	96.3107	5.4183	-6.455
4.120	63.01	96.3063	5.4180	-6.417
4.128	63.10	96.3019	5.4178	-6.379
4.137	63.19	96.2976	5.4175	-6.342
4.145	63.27	96.2932	5.4173	-6.304
4.153	63.36	96.2889	5.4170	-6.266
4.162	63.45	96.2846	5.4168	-6.228
4.170	63.53	96.2804	5.4165	-6.191
4.178	63.62	96.2761	5.4163	-6.154
4.187	63.71	96.2719	5.4161	-6.117
4.195	63.79	96.2677	5.4158	-6.080
4.203	63.88	96.2635	5.4156	-6.043
4.212	63.97	96.2593	5.4154	-6.006
4.220	64.05	96.2552	5.4151	-5.970
4.228	64.14	96.2511	5.4149	-5.934
4.237	64.23	96.2470	5.4147	-5.897
4.245	64.31	96.2429	5.4144	-5.861
4.253	64.40	96.2389	5.4142	-5.824
4.262	64.49	96.2348	5.4140	-5.788
4.270	64.57	96.2308	5.4138	-5.752
4.278	64.66	96.2269	5.4135	-5.716
4.287	64.74	96.2229	5.4133	-5.679
4.295	64.83	96.2190	5.4131	-5.644
4.303	64.92	96.2151	5.4129	-5.607
4.312	65.00	96.2112	5.4127	-5.571
4.320	65.09	96.2074	5.4124	-5.535
4.328	65.17	96.2035	5.4122	-5.499
4.337	65.26	96.1997	5.4120	-5.464
4.345	65.35	96.1959	5.4118	-5.427
4.353	65.43	96.1921	5.4116	-5.391
4.362	65.52	96.1884	5.4114	-5.355
4.370	65.60	96.1846	5.4112	-5.319
4.378	65.69	96.1809	5.4110	-5.283
4.387	65.78	96.1772	5.4107	-5.247
4.395	65.86	96.1735	5.4105	-5.211
4.403	65.95	96.1699	5.4103	-5.176
4.412	66.03	96.1662	5.4101	-5.140
4.420	66.12	96.1626	5.4099	-5.104
4.428	66.21	96.1590	5.4097	-5.068
4.437	66.29	96.1555	5.4095	-5.033
4.445	66.38	96.1519	5.4093	-4.997
4.453	66.46	96.1484	5.4091	-4.961
4.462	66.55	96.1449	5.4089	-4.926
4.470	66.63	96.1414	5.4087	-4.891
4.478	66.72	96.1379	5.4085	-4.856
4.487	66.81	96.1344	5.4083	-4.822
4.495	66.89	96.1310	5.4081	-4.787
4.503	66.98	96.1276	5.4080	-4.752
4.512	67.06	96.1242	5.4078	-4.717
4.520	67.15	96.1208	5.4076	-4.683
4.528	67.23	96.1175	5.4074	-4.649
4.537	67.32	96.1141	5.4072	-4.614
4.545	67.40	96.1108	5.4070	-4.579
4.553	67.49	96.1075	5.4068	-4.545
4.562	67.58	96.1043	5.4066	-4.510
4.570	67.66	96.1010	5.4065	-4.476
4.578	67.75	96.0978	5.4063	-4.441
4.587	67.83	96.0946	5.4061	-4.407
4.595	67.92	96.0914	5.4059	-4.373
4.603	68.00	96.0882	5.4057	-4.339
4.612	68.09	96.0851	5.4056	-4.305
4.620	68.17	96.0819	5.4054	-4.271
4.628	68.26	96.0788	5.4052	-4.238
4.637	68.35	96.0757	5.4050	-4.204
4.645	68.43	96.0726	5.4049	-4.171
4.653	68.52	96.0695	5.4047	-4.137
4.662	68.60	96.0664	5.4045	-4.104
4.670	68.69	96.0634	5.4043	-4.070
4.678	68.77	96.0603	5.4042	-4.037
4.687	68.86	96.0573	5.4040	-4.003
4.695	68.94	96.0543	5.4038	-3.969
4.703	69.03	96.0514	5.4037	-3.936
4.712	69.11	96.0484	5.4035	-3.903
4.720	69.20	96.0454	5.4033	-3.869
4.728	69.28	96.0425	5.4032	-3.836
4.737	69.37	96.0396	5.4030	-3.802
4.745	69.46	96.0367	5.4028	-3.769
4.753	69.54	96.0338	5.4027	-3.736
4.762	69.63	96.0309	5.4025	-3.703
4.770	69.71	96.0281	5.4024	-3.670
4.778	69.80	96.0253	5.4022	-3.637
4.787	69.88	96.0224	5.4020	-3.604
4.795	69.97	96.0197	5.4019	-3.571
4.803	70.05	96.0169	5.4017	-3.538
4.812	70.14	96.0142	5.4016	-3.505
4.820	70.22	96.0114	5.4014	-3.473
4.828	70.31	96.0087	5.4013	-3.441
4.837	70.39	96.0060	5.4011	-3.409
4.845	70.48	96.0033	5.4010	-3.376
4.853	70.56	96.0006	5.4008	-3.344
4.862	70.65	95.9979	5.4007	-3.311
4.870	70.73	95.9953	5.4005	-3.278
4.878	70.82	95.9927	5.4004	-3.246
4.887	70.90	95.9900	5.4002	-3.214
4.895	70.99	95.9874	5.4001	-3.182
4.903	71.07	95.9848	5.3999	-3.150
4.912	71.16	95.9823	5.3998	-3.118
4.920	71.24	95.9797	5.3996	-3.085
4.928	71.33	95.9772	5.3995	-3.053
4.937	71.41	95.9747	5.3993	-3.021
4.945	71.50	95.9722	5.3992	-2.989
4.953	71.58	95.9697	5.3991	-2.956
4.962	71.67	95.9672	5.3989	-2.925
4.970	71.75	95.9648	5.3988	-2.893
4.978	71.84	95.9623	5.3987	-2.861
4.987	71.92	95.9599	5.3985	-2.829
4.995	72.01	95.9575	5.3984	-2.798
5.003	72.09	95.9551	5.3982	-2.767
5.012	72.18	95.9527	5.3981	-2.737
5.020	72.26	95.9503	5.3980	-2.706
5.028	72.35	95.9479	5.3978	-2.676
5.037	72.43	95.9456	5.3977	-2.646
5.045	72.52	95.9433	5.3976	-2.617
5.053	72.60	95.9410	5.3975	-2.587
5.062	72.69	95.9387	5.3973	-2.557
5.070	72.77	95.9364	5.3972	-2.527
5.078	72.86	95.9342	5.3971	-2.495
5.087	72.94	95.9319	5.3969	-2.464
5.095	73.03	95.9297	5.3968	-2.433
5.103	73.11	95.9275	5.3967	-2.402
5.112	73.20	95.9253	5.3966	-2.372
5.120	73.28	95.9231	5.3964	-2.340
5.128	73.37	95.9209	5.3963	-2.309
5.137	73.45	95.9187	5.3962	-2.278
5.145	73.54	95.9165	5.3961	-2.247
5.153	73.62	95.9144	5.3960	-2.217
5.162	73.71	95.9122	5.3958	-2.186
5.170	73.79	95.9101	5.3957	-2.157
5.178	73.88	95.9080	5.3956	-2.126
5.187	73.97	95.9059	5.3955	-2.097
5.195	74.05	95.9038	5.3954	-2.067
5.203	74.14	95.9017	5.3952	-2.037
5.212	74.22	95.8997	5.3951	-2.007
5.220	74.31	95.8976	5.3950	-1.978
5.228	74.39	95.8956	5.3949	-1.949
5.237	74.48	95.8936	5.3948	-1.919
5.245	74.56	95.8916	5.3947	-1.890
5.253	74.65	95.8896	5.3946	-1.860
5.262	74.73	95.8876	5.3944	-1.831
5.270	74.82	95.8856	5.3943	-1.801
5.278	74.90	95.8837	5.3942	-1.772
5.287	74.99	95.8817	5.3941	-1.743
5.295	75.07	95.8797	5.3940	-1.714
5.303	75.16	95.8778	5.3939	-1.685
5.312	75.24	95.8759	5.3938	-1.655
5.320	75.33	95.8740	5.3937	-1.626
5.328	75.41	95.8721	5.3936	-1.597
5.337	75.50	95.8702	5.3935	-1.568
5.345	75.58	95.8683	5.3934	-1.539
5.353	75.67	95.8665	5.3933	-1.509
5.362	75.75	95.8646	5.3932	-1.480
5.370	75.84	95.8628	5.3931	-1.451
5.378	75.92	95.8609	5.3930	-1.421
5.387	76.01	95.8591	5.3928	-1.392
5.395	76.09	95.8574	5.3927	-1.363
5.403	76.18	95.8556	5.3926	-1.334
5.412	76.26	95.8539	5.3926	-1.306
5.420	76.35	95.8521	5.3925	-1.277
5.428	76.43	95.8504	5.3924	-1.249
5.437	76.52	95.8487	5.3923	-1.221
5.445	76.60	95.8470	5.3922	-1.193
5.453	76.69	95.8453	5.3921	-1.164
5.462	76.78	95.8436	5.3920	-1.136
5.470	76.86	95.8420	5.3919	-1.108
5.478	76.95	95.8403	5.3918	-1.080
5.487	77.03	95.8386	5.3917	-1.052
5.495	77.12	95.8369	5.3916	-1.024
5.503	77.20	95.8353	5.3915	-0.996
5.512	77.29	95.8336	5.3914	-0.968
5.520	77.37	95.8320	5.3913	-0.940
5.528	77.46	95.8304	5.3912	-0.912
5.537	77.54	95.8287	5.3911	-0.885
5.545	77.63	95.8271	5.3910	-0.856
5.553	77.71	95.8255	5.3910	-0.828
5.562	77.80	95.8240	5.3909	-0.800
5.570	77.88	95.8224	5.3908	-0.771
5.578	77.97	95.8208	5.3907	-0.744
5.587	78.06	95.8193	5.3906	-0.717
5.595	78.14	95.8177	5.3905	-0.689
5.603	78.23	95.8162	5.3904	-0.662
5.612	78.31	95.8147	5.3903	-0.634
5.620	78.40	95.8132	5.3903	-0.607
5.628	78.48	95.8117	5.3902	-0.580
5.637	78.57	95.8102	5.3901	-0.552
5.645	78.65	95.8087	5.3900	-0.525
5.653	78.74	95.8072	5.3899	-0.498
5.662	78.82	95.8058	5.3898	-0.471
5.670	78.91	95.8043	5.3898	-0.443
5.678	79.00	95.8029	5.3897	-0.416
5.687	79.08	95.8015	5.3896	-0.389
5.695	79.17	95.8000	5.3895	-0.361
5.703	79.25	95.7986	5.3894	-0.334
5.712	79.34	95.7972	5.3894	-0.307
5.720	79.42	95.7958	5.3893	-0.280
5.728	79.51	95.7945	5.3892	-0.253
5.737	79.60	95.7931	5.3891	-0.227
5.745	79.68	95.7917	5.3891	-0.200
5.753	79.77	95.7904	5.3890	-0.174
5.762	79.85	95.7891	5.3889	-0.146
5.770	79.94	95.7877	5.3888	-0.119
5.778	80.02	95.7864	5.3888	-0.092
5.787	80.11	95.7851	5.3887	-0.065
5.795	80.19	95.7838	5.3886	-0.038
5.803	80.28	95.7825	5.3885	-0.012
5.812	80.37	95.7813	5.3885	0.015
5.820	80.45	95.7800	5.3884	0.041
5.828	80.54	95.7787	5.3883	0.068
5.837	80.62	95.7774	5.3883	0.094
5.845	80.71	95.7762	5.3882	0.120
5.853	80.80	95.7749	5.3881	0.145
5.862	80.88	95.7737	5.3880	0.171
5.870	80.97	95.7725	5.3880	0.196
5.878	81.05	95.7713	5.3879	0.222
5.887	81.14	95.7701	5.3878	0.247
5.895	81.23	95.7688	5.3878	0.273
5.903	81.31	95.7676	5.3877	0.298
5.912	81.40	95.7664	5.3876	0.324
5.920	81.48	95.7652	5.3876	0.349
5.928	81.57	95.7640	5.3875	0.375
5.937	81.65	95.7628	5.3874	0.400
5.945	81.74	95.7615	5.3874	0.426
5.953	81.83	95.7603	5.3873	0.451
5.962	81.91	95.7591	5.3872	0.477
5.970	82.00	95.7579	5.3872	0.503
5.978	82.08	95.7568	5.3871	0.528
5.987	82.17	95.7556	5.3870	0.553
5.995	82.26	95.7544	5.3870	0.579
6.003	82.34	95.7533	5.3869	0.603
6.012	82.43	95.7522	5.3868	0.628
6.020	82.51	95.7511	5.3868	0.654
6.028	82.60	95.7500	5.3867	0.679
6.037	82.69	95.7489	5.3866	0.704
6.045	82.77	95.7478	5.3866	0.730
6.053	82.86	95.7468	5.3865	0.755
6.062	82.94	95.7457	5.3865	0.780
6.070	83.03	95.7447	5.3864	0.806
6.078	83.11	95.7436	5.3864	0.831
6.087	83.20	95.7426	5.3863	0.857
6.095	83.29	95.7415	5.3862	0.882
6.103	83.37	95.7405	5.3862	0.907
6.112	83.46	95.7395	5.3861	0.932
6.120	83.54	95.7385	5.3861	0.957
6.128	83.63	95.7375	5.3860	0.981
6.137	83.72	95.7364	5.3859	1.006
6.145	83.80	95.7354	5.3859	1.031
6.153	83.89	95.7345	5.3858	1.055
6.162	83.97	95.7335	5.3858	1.080
6.170	84.06	95.7325	5.3857	1.105
6.178	84.15	95.7315	5.3857	1.130
6.187	84.23	95.7306	5.3856	1.156
6.195	84.32	95.7296	5.3856	1.181
6.203	84.41	95.7287	5.3855	1.206
6.212	84.49	95.7277	5.3855	1.231
6.220	84.58	95.7268	5.3854	1.256
6.228	84.66	95.7259	5.3854	1.280
6.237	84.75	95.7249	5.3853	1.305
6.245	84.84	95.7240	5.3852	1.329
6.253	84.92	95.7231	5.3852	1.354
6.262	85.01	95.7222	5.3851	1.378
6.270	85.09	95.7213	5.3851	1.402
6.278	85.18	95.7204	5.3850	1.425
6.287	85.27	95.7195	5.3850	1.450
6.295	85.35	95.7186	5.3849	1.474
6.303	85.44	95.7177	5.3849	1.500
6.312	85.53	95.7168	5.3848	1.525
6.320	85.61	95.7159	5.3848	1.550
6.328	85.70	95.7151	5.3847	1.574
6.337	85.79	95.7142	5.3847	1.599
6.345	85.87	95.7133	5.3846	1.623
6.353	85.96	95.7124	5.3846	1.647
6.362	86.04	95.7116	5.3845	1.671
6.370	86.13	95.7107	5.3845	1.694
6.378	86.22	95.7099	5.3845	1.718
6.387	86.30	95.7090	5.3844	1.740
6.395	86.39	95.7081	5.3844	1.764
6.403	86.47	95.7073	5.3843	1.788
6.412	86.56	95.7065	5.3843	1.812
6.420	86.65	95.7057	5.3842	1.835
6.428	86.73	95.7048	5.3842	1.858
6.437	86.82	95.7040	5.3841	1.882
6.445	86.91	95.7032	5.3841	1.906
6.453	86.99	95.7025	5.3840	1.930
6.462	87.08	95.7017	5.3840	1.953
6.470	87.16	95.7009	5.3839	1.977
6.478	87.25	95.7001	5.3839	2.001
6.487	87.34	95.6994	5.3839	2.024
6.495	87.43	95.6986	5.3838	2.047
6.503	87.51	95.6979	5.3838	2.070
6.512	87.60	95.6971	5.3837	2.093
6.520	87.68	95.6964	5.3837	2.116
6.528	87.77	95.6956	5.3836	2.140
6.537	87.86	95.6949	5.3836	2.162
6.545	87.94	95.6941	5.3836	2.185
6.553	88.03	95.6934	5.3835	2.208
6.562	88.12	95.6927	5.3835	2.231
6.570	88.20	95.6919	5.3834	2.254
6.578	88.29	95.6912	5.3834	2.276
6.587	88.37	95.6905	5.3834	2.300
6.595	88.46	95.6898	5.3833	2.323
6.603	88.55	95.6891	5.3833	2.346
6.612	88.63	95.6884	5.3832	2.369
6.620	88.72	95.6876	5.3832	2.392
6.628	88.81	95.6869	5.3832	2.415
6.637	88.89	95.6863	5.3831	2.438
6.645	88.98	95.6856	5.3831	2.460
6.653	89.06	95.6849	5.3830	2.483
6.662	89.15	95.6842	5.3830	2.506
6.670	89.24	95.6835	5.3830	2.528
6.678	89.32	95.6828	5.3829	2.550
6.687	89.41	95.6821	5.3829	2.572
6.695	89.50	95.6814	5.3829	2.595
6.703	89.58	95.6808	5.3828	2.617
6.712	89.67	95.6801	5.3828	2.638
6.720	89.75	95.6794	5.3827	2.660
6.728	89.84	95.6787	5.3827	2.683
6.737	89.93	95.6781	5.3827	2.705
6.745	90.01	95.6774	5.3826	2.728
6.753	90.10	95.6768	5.3826	2.750
6.762	90.19	95.6761	5.3826	2.773
6.770	90.27	95.6755	5.3825	2.796
6.778	90.36	95.6748	5.3825	2.819
6.787	90.45	95.6742	5.3824	2.841
6.795	90.53	95.6735	5.3824	2.864
6.803	90.62	95.6729	5.3824	2.887
6.812	90.70	95.6723	5.3823	2.909
6.820	90.79	95.6717	5.3823	2.931
6.828	90.88	95.6711	5.3823	2.953
6.837	90.96	95.6705	5.3822	2.975
6.845	91.05	95.6699	5.3822	2.997
6.853	91.14	95.6693	5.3822	3.019
6.862	91.22	95.6687	5.3821	3.041
6.870	91.31	95.6682	5.3821	3.063
6.878	91.40	95.6676	5.3821	3.084
6.887	91.48	95.6670	5.3820	3.106
6.895	91.57	95.6665	5.3820	3.127
6.903	91.66	95.6659	5.3820	3.149
6.912	91.74	95.6654	5.3819	3.171
6.920	91.83	95.6649	5.3819	3.193
6.928	91.92	95.6643	5.3819	3.213
6.937	92.00	95.6638	5.3819	3.234
6.945	92.09	95.6633	5.3818	3.255
6.953	92.17	95.6627	5.3818	3.276
6.962	92.26	95.6622	5.3818	3.296
6.970	92.35	95.6617	5.3817	3.318
6.978	92.43	95.6611	5.3817	3.339
6.987	92.52	95.6606	5.3817	3.361
6.995	92.61	95.6601	5.3816	3.381
7.003	92.69	95.6595	5.3816	3.402
7.012	92.78	95.6590	5.3816	3.423
7.020	92.87	95.6585	5.3816	3.445
7.028	92.95	95.6580	5.3815	3.466
7.037	93.04	95.6575	5.3815	3.488
7.045	93.12	95.6570	5.3815	3.511
7.053	93.21	95.6565	5.3814	3.532
7.062	93.30	95.6560	5.3814	3.553
7.070	93.38	95.6555	5.3814	3.573
7.078	93.47	95.6550	5.3814	3.595
7.087	93.55	95.6545	5.3813	3.616
7.095	93.64	95.6541	5.3813	3.636
7.103	93.73	95.6536	5.3813	3.657
7.112	93.81	95.6531	5.3813	3.679
7.120	93.90	95.6526	5.3812	3.699
7.128	93.99	95.6521	5.3812	3.720
7.137	94.07	95.6516	5.3812	3.740
7.145	94.16	95.6512	5.3811	3.762
7.153	94.25	95.6507	5.3811	3.783
7.162	94.33	95.6502	5.3811	3.804
7.170	94.42	95.6498	5.3811	3.824
7.178	94.51	95.6493	5.3810	3.844
7.187	94.59	95.6489	5.3810	3.864
7.195	94.68	95.6484	5.3810	3.885
7.203	94.76	95.6480	5.3810	3.905
7.212	94.85	95.6475	5.3809	3.926
7.220	94.94	95.6471	5.3809	3.946
7.228	95.02	95.6466	5.3809	3.966
7.237	95.11	95.6462	5.3809	3.986
7.245	95.20	95.6458	5.3808	4.006
7.253	95.28	95.6453	5.3808	4.027
7.262	95.37	95.6449	5.3808	4.048
7.270	95.45	95.6445	5.3808	4.069
7.278	95.54	95.6441	5.3808	4.089
7.287	95.63	95.6437	5.3807	4.109
7.295	95.71	95.6432	5.3807	4.129
7.303	95.80	95.6428	5.3807	4.150
7.312	95.89	95.6424	5.3807	4.170
7.320	95.97	95.6420	5.3806	4.191
7.328	96.06	95.6415	5.3806	4.211
7.337	96.14	95.6411	5.3806	4.231
7.345	96.23	95.6407	5.3806	4.250
7.353	96.32	95.6403	5.3805	4.270
7.362	96.40	95.6398	5.3805	4.290
7.370	96.49	95.6394	5.3805	4.309
7.378	96.57	95.6391	5.3805	4.329
7.387	96.66	95.6387	5.3804	4.349
7.395	96.75	95.6383	5.3804	4.369
7.403	96.83	95.6379	5.3804	4.389
7.412	96.92	95.6375	5.3804	4.409
7.420	97.01	95.6372	5.3804	4.429
7.428	97.09	95.6368	5.3803	4.449
7.437	97.18	95.6364	5.3803	4.468
7.445	97.26	95.6360	5.3803	4.488
7.453	97.35	95.6356	5.3803	4.508
7.462	97.44	95.6352	5.3803	4.527
7.470	97.52	95.6348	5.3802	4.546
7.478	97.61	95.6344	5.3802	4.565
7.487	97.70	95.6340	5.3802	4.585
7.495	97.78	95.6337	5.3802	4.605
7.503	97.87	95.6333	5.3801	4.625
7.512	97.95	95.6329	5.3801	4.644
7.520	98.04	95.6326	5.3801	4.664
7.528	98.13	95.6322	5.3801	4.684
7.537	98.21	95.6319	5.3801	4.703
7.545	98.30	95.6315	5.3800	4.723
7.553	98.38	95.6312	5.3800	4.742
7.562	98.47	95.6308	5.3800	4.761
7.570	98.56	95.6305	5.3800	4.779
7.578	98.64	95.6301	5.3800	4.798
7.587	98.73	95.6298	5.3799	4.817
7.595	98.82	95.6294	5.3799	4.835
7.603	98.90	95.6291	5.3799	4.854
7.612	98.99	95.6287	5.3799	4.873
7.620	99.07	95.6284	5.3799	4.892
7.628	99.16	95.6280	5.3798	4.911
7.637	99.25	95.6277	5.3798	4.930
7.645	99.33	95.6273	5.3798	4.949
7.653	99.42	95.6270	5.3798	4.969
7.662	99.51	95.6266	5.3798	4.989
7.670	99.59	95.6263	5.3798	5.008
7.678	99.68	95.6260	5.3797	5.027
7.687	99.76	95.6257	5.3797	5.046
7.695	99.85	95.6254	5.3797	5.065
7.703	99.93	95.6250	5.3797	5.083
7.712	100.02	95.6247	5.3797	5.103
7.720	100.11	95.6244	5.3796	5.122
7.728	100.19	95.6241	5.3796	5.142
7.737	100.28	95.6238	5.3796	5.161
7.745	100.36	95.6235	5.3796	5.179
7.753	100.45	95.6232	5.3796	5.197
7.762	100.54	95.6228	5.3796	5.216
7.770	100.62	95.6225	5.3795	5.235
7.778	100.71	95.6222	5.3795	5.253
7.787	100.80	95.6219	5.3795	5.271
7.795	100.88	95.6216	5.3795	5.289
7.803	100.97	95.6213	5.3795	5.307
7.812	101.05	95.6210	5.3795	5.325
7.820	101.14	95.6207	5.3794	5.344
7.828	101.22	95.6204	5.3794	5.363
7.837	101.31	95.6201	5.3794	5.381
7.845	101.40	95.6198	5.3794	5.400
7.853	101.48	95.6195	5.3794	5.418
7.862	101.57	95.6192	5.3793	5.437
7.870	101.65	95.6189	5.3793	5.455
7.878	101.74	95.6185	5.3793	5.473
7.887	101.83	95.6182	5.3793	5.491
7.895	101.91	95.6179	5.3793	5.510
7.903	102.00	95.6176	5.3793	5.528
7.912	102.08	95.6173	5.3792	5.546
7.920	102.17	95.6170	5.3792	5.565
7.928	102.26	95.6167	5.3792	5.583
7.937	102.34	95.6164	5.3792	5.602
7.945	102.43	95.6161	5.3792	5.620
7.953	102.51	95.6158	5.3792	5.639
7.962	102.60	95.6155	5.3791	5.656
7.970	102.69	95.6152	5.3791	5.674
7.978	102.77	95.6149	5.3791	5.692
7.987	102.86	95.6146	5.3791	5.710
7.995	102.94	95.6143	5.3791	5.727
8.003	103.03	95.6140	5.3791	5.744
8.012	103.12	95.6137	5.3790	5.762
8.020	103.20	95.6134	5.3790	5.779
8.028	103.29	95.6131	5.3790	5.797
8.037	103.37	95.6129	5.3790	5.815
8.045	103.46	95.6126	5.3790	5.833
8.053	103.55	95.6123	5.3790	5.850
8.062	103.63	95.6121	5.3789	5.867
8.070	103.72	95.6118	5.3789	5.884
8.078	103.80	95.6115	5.3789	5.901
8.087	103.89	95.6112	5.3789	5.919
8.095	103.98	95.6110	5.3789	5.937
8.103	104.06	95.6107	5.3789	5.954
8.112	104.15	95.6104	5.3789	5.971
8.120	104.23	95.6102	5.3788	5.988
8.128	104.32	95.6099	5.3788	6.005
8.137	104.40	95.6096	5.3788	6.023
8.145	104.49	95.6094	5.3788	6.041
8.153	104.58	95.6091	5.3788	6.058
8.162	104.66	95.6089	5.3788	6.075
8.170	104.75	95.6086	5.3788	6.093
8.178	104.83	95.6084	5.3787	6.109
8.187	104.92	95.6081	5.3787	6.127
8.195	105.01	95.6079	5.3787	6.144
8.203	105.09	95.6077	5.3787	6.161
8.212	105.18	95.6075	5.3787	6.178
8.220	105.26	95.6072	5.3787	6.195
8.228	105.35	95.6070	5.3787	6.211
8.237	105.43	95.6068	5.3787	6.228
8.245	105.52	95.6065	5.3786	6.245
8.253	105.61	95.6063	5.3786	6.262
8.262	105.69	95.6060	5.3786	6.279
8.270	105.78	95.6058	5.3786	6.296
8.278	105.86	95.6055	5.3786	6.313
8.287	105.95	95.6053	5.3786	6.330
8.295	106.03	95.6051	5.3786	6.348
8.303	106.12	95.6048	5.3785	6.365
8.312	106.21	95.6046	5.3785	6.382
8.320	106.29	95.6043	5.3785	6.399
8.328	106.38	95.6041	5.3785	6.417
8.337	106.46	95.6038	5.3785	6.434
8.345	106.55	95.6036	5.3785	6.451

[step]
Isothermal 30.0 min
Time	Temperature	Weight	Weight	Heat Flow
min	°C	%	mg	mW
8.353	106.64	95.6033	5.3785	6.468
8.378	106.89	95.6026	5.3784	6.517
8.403	107.15	95.6019	5.3784	6.569
8.428	107.40	95.6013	5.3783	6.618
8.453	107.66	95.6007	5.3783	6.671
8.478	107.91	95.6000	5.3783	6.725
8.503	108.16	95.5992	5.3782	6.781
8.528	108.41	95.5985	5.3782	6.839
8.553	108.66	95.5978	5.3781	6.899
8.578	108.90	95.5971	5.3781	6.961
8.603	109.14	95.5963	5.3781	7.026
8.628	109.37	95.5955	5.3780	7.091
8.653	109.60	95.5946	5.3780	7.158
8.678	109.83	95.5937	5.3779	7.228
8.703	110.04	95.5928	5.3779	7.298
8.728	110.26	95.5919	5.3778	7.370
8.753	110.47	95.5910	5.3778	7.444
8.778	110.67	95.5901	5.3777	7.519
8.803	110.87	95.5892	5.3777	7.596
8.828	111.06	95.5882	5.3776	7.673
8.853	111.24	95.5872	5.3776	7.751
8.878	111.42	95.5862	5.3775	7.831
8.903	111.59	95.5852	5.3774	7.909
8.928	111.76	95.5842	5.3774	7.989
8.953	111.91	95.5832	5.3773	8.068
8.978	112.06	95.5821	5.3773	8.145
9.003	112.21	95.5810	5.3772	8.224
9.028	112.35	95.5799	5.3771	8.302
9.053	112.48	95.5788	5.3771	8.382
9.078	112.60	95.5778	5.3770	8.462
9.103	112.72	95.5768	5.3770	8.543
9.128	112.83	95.5758	5.3769	8.623
9.153	112.93	95.5748	5.3769	8.701
9.178	113.02	95.5738	5.3768	8.775
9.203	113.11	95.5728	5.3767	8.849
9.228	113.19	95.5717	5.3767	8.921
9.253	113.26	95.5707	5.3766	8.993
9.278	113.33	95.5696	5.3766	9.064
9.303	113.39	95.5685	5.3765	9.132
9.328	113.44	95.5674	5.3764	9.197
9.353	113.49	95.5663	5.3764	9.258
9.378	113.54	95.5652	5.3763	9.318
9.403	113.57	95.5641	5.3762	9.374
9.428	113.61	95.5629	5.3762	9.427
9.453	113.64	95.5618	5.3761	9.478
9.478	113.66	95.5606	5.3761	9.527
9.503	113.68	95.5595	5.3760	9.573
9.528	113.69	95.5583	5.3759	9.617
9.553	113.70	95.5573	5.3759	9.656
9.578	113.70	95.5562	5.3758	9.695
9.603	113.70	95.5551	5.3757	9.730
9.628	113.70	95.5540	5.3757	9.764
9.653	113.69	95.5529	5.3756	9.795
9.678	113.68	95.5519	5.3756	9.824
9.703	113.67	95.5508	5.3755	9.851
9.728	113.65	95.5497	5.3754	9.876
9.753	113.63	95.5487	5.3754	9.898
9.778	113.60	95.5477	5.3753	9.918
9.803	113.57	95.5466	5.3753	9.936
9.828	113.54	95.5457	5.3752	9.952
9.853	113.50	95.5446	5.3752	9.964
9.878	113.47	95.5435	5.3751	9.975
9.903	113.43	95.5424	5.3750	9.983
9.928	113.39	95.5414	5.3750	9.988
9.953	113.35	95.5403	5.3749	9.992
9.978	113.31	95.5393	5.3749	9.995
10.003	113.26	95.5384	5.3748	9.996
10.028	113.22	95.5374	5.3747	9.997
10.053	113.18	95.5365	5.3747	9.996
10.078	113.13	95.5356	5.3746	9.993
10.103	113.09	95.5348	5.3746	9.988
10.128	113.04	95.5339	5.3746	9.980
10.153	113.00	95.5332	5.3745	9.968
10.178	112.95	95.5324	5.3745	9.952
10.203	112.91	95.5317	5.3744	9.935
10.228	112.87	95.5310	5.3744	9.918
10.253	112.82	95.5303	5.3744	9.901
10.278	112.78	95.5296	5.3743	9.884
10.303	112.73	95.5289	5.3743	9.863
10.328	112.69	95.5282	5.3742	9.842
10.353	112.65	95.5275	5.3742	9.821
10.378	112.61	95.5269	5.3742	9.800
10.403	112.57	95.5263	5.3741	9.779
10.428	112.53	95.5257	5.3741	9.757
10.453	112.49	95.5252	5.3741	9.735
10.478	112.46	95.5247	5.3740	9.714
10.503	112.42	95.5242	5.3740	9.693
10.528	112.38	95.5237	5.3740	9.669
10.553	112.35	95.5232	5.3739	9.646
10.578	112.32	95.5227	5.3739	9.624
10.603	112.29	95.5222	5.3739	9.600
10.628	112.26	95.5218	5.3739	9.578
10.653	112.23	95.5213	5.3738	9.555
10.678	112.20	95.5209	5.3738	9.534
10.703	112.17	95.5204	5.3738	9.512
10.728	112.15	95.5200	5.3738	9.489
10.753	112.12	95.5195	5.3737	9.468
10.778	112.10	95.5191	5.3737	9.448
10.803	112.08	95.5187	5.3737	9.428
10.828	112.06	95.5184	5.3737	9.407
10.853	112.04	95.5181	5.3737	9.385
10.878	112.02	95.5178	5.3736	9.364
10.903	112.01	95.5175	5.3736	9.343
10.928	111.99	95.5171	5.3736	9.324
10.953	111.98	95.5168	5.3736	9.306
10.978	111.97	95.5165	5.3736	9.290
11.003	111.96	95.5161	5.3736	9.274
11.028	111.95	95.5158	5.3735	9.255
11.053	111.94	95.5154	5.3735	9.237
11.078	111.93	95.5151	5.3735	9.221
11.103	111.93	95.5147	5.3735	9.205
11.128	111.92	95.5144	5.3735	9.191
11.153	111.92	95.5140	5.3734	9.178
11.178	111.92	95.5137	5.3734	9.165
11.203	111.92	95.5134	5.3734	9.151
11.228	111.92	95.5131	5.3734	9.137
11.253	111.92	95.5128	5.3734	9.124
11.278	111.92	95.5125	5.3733	9.114
11.303	111.92	95.5122	5.3733	9.104
11.328	111.93	95.5119	5.3733	9.094
11.353	111.93	95.5117	5.3733	9.086
11.378	111.94	95.5113	5.3733	9.079
11.403	111.95	95.5110	5.3733	9.072
11.428	111.96	95.5107	5.3732	9.063
11.453	111.97	95.5104	5.3732	9.054
11.478	111.97	95.5102	5.3732	9.046
11.503	111.99	95.5099	5.3732	9.039
11.528	112.00	95.5097	5.3732	9.034
11.553	112.01	95.5094	5.3732	9.029
11.578	112.02	95.5091	5.3732	9.024
11.603	112.04	95.5089	5.3731	9.019
11.628	112.05	95.5087	5.3731	9.015
11.653	112.06	95.5084	5.3731	9.011
11.678	112.08	95.5081	5.3731	9.008
11.703	112.10	95.5078	5.3731	9.005
11.728	112.11	95.5075	5.3731	9.001
11.753	112.13	95.5073	5.3731	8.998
11.778	112.15	95.5070	5.3730	8.996
11.803	112.16	95.5068	5.3730	8.994
11.828	112.18	95.5065	5.3730	8.993
11.853	112.20	95.5063	5.3730	8.991
11.878	112.22	95.5060	5.3730	8.990
11.903	112.23	95.5057	5.3730	8.988
11.928	112.25	95.5055	5.3730	8.988
11.953	112.27	95.5053	5.3729	8.988
11.978	112.29	95.5051	5.3729	8.988
12.003	112.31	95.5049	5.3729	8.988
12.028	112.33	95.5047	5.3729	8.989
12.053	112.35	95.5044	5.3729	8.991
12.078	112.37	95.5040	5.3729	8.993
12.103	112.39	95.5036	5.3728	8.995
12.128	112.41	95.5033	5.3728	8.998
12.153	112.43	95.5029	5.3728	9.001
12.178	112.45	95.5027	5.3728	9.005
12.203	112.47	95.5024	5.3728	9.010
12.228	112.49	95.5022	5.3728	9.014
12.253	112.51	95.5019	5.3728	9.018
12.278	112.53	95.5017	5.3727	9.023
12.303	112.55	95.5014	5.3727	9.029
12.328	112.56	95.5012	5.3727	9.035
12.353	112.58	95.5009	5.3727	9.040
12.378	112.60	95.5006	5.3727	9.044
[...]
216.378	949.70	0.7796	0.0439	35.597
216.403	949.70	0.7794	0.0438	35.600
216.428	949.70	0.7792	0.0438	35.602
216.453	949.70	0.7790	0.0438	35.604
216.478	949.70	0.7788	0.0438	35.606
216.503	949.70	0.7785	0.0438	35.607
216.528	949.70	0.7783	0.0438	35.610
216.553	949.70	0.7782	0.0438	35.612
216.578	949.70	0.7780	0.0438	35.614
216.603	949.70	0.7779	0.0438	35.617
216.628	949.70	0.7777	0.0438	35.620
216.653	949.70	0.7775	0.0437	35.622
216.678	949.70	0.7773	0.0437	35.624
216.703	949.70	0.7771	0.0437	35.624
216.728	949.70	0.7770	0.0437	35.626
216.753	949.70	0.7768	0.0437	35.628
216.778	949.70	0.7767	0.0437	35.631
216.803	949.70	0.7766	0.0437	35.635
216.828	949.70	0.7764	0.0437	35.639
216.853	949.70	0.7763	0.0437	35.643
216.878	949.70	0.7761	0.0437	35.647
216.903	949.70	0.7760	0.0437	35.652
216.928	949.70	0.7759	0.0436	35.657
216.953	949.70	0.7757	0.0436	35.661
216.978	949.70	0.7754	0.0436	35.665
217.003	949.70	0.7752	0.0436	35.669
217.028	949.70	0.7750	0.0436	35.672
217.053	949.70	0.7748	0.0436	35.676
217.078	949.70	0.7746	0.0436	35.679
217.103	949.70	0.7743	0.0436	35.683
217.128	949.70	0.7742	0.0436	35.687
217.153	949.70	0.7740	0.0435	35.692
217.178	949.70	0.7738	0.0435	35.697
217.203	949.70	0.7736	0.0435	35.703
217.228	949.70	0.7734	0.0435	35.708
217.253	949.70	0.7732	0.0435	35.712
217.278	949.70	0.7730	0.0435	35.716
217.303	949.70	0.7728	0.0435	35.719
217.328	949.70	0.7726	0.0435	35.722
217.353	949.70	0.7723	0.0434	35.726
217.378	949.70	0.7721	0.0434	35.728
217.403	949.70	0.7718	0.0434	35.731
217.428	949.70	0.7717	0.0434	35.733
217.453	949.70	0.7715	0.0434	35.735
217.478	949.71	0.7713	0.0434	35.736
217.503	949.71	0.7712	0.0434	35.738
217.528	949.71	0.7711	0.0434	35.739
217.553	949.71	0.7710	0.0434	35.741
217.578	949.71	0.7709	0.0434	35.744
217.603	949.71	0.7708	0.0434	35.747
217.628	949.71	0.7706	0.0434	35.749
217.653	949.71	0.7704	0.0433	35.753
217.678	949.71	0.7702	0.0433	35.756
217.703	949.71	0.7699	0.0433	35.760
217.728	949.71	0.7697	0.0433	35.764
217.753	949.71	0.7695	0.0433	35.770
217.778	949.71	0.7693	0.0433	35.774
217.803	949.71	0.7692	0.0433	35.778
217.828	949.71	0.7690	0.0433	35.783
217.853	949.71	0.7688	0.0433	35.788
217.878	949.71	0.7687	0.0432	35.794
217.903	949.71	0.7685	0.0432	35.800
217.928	949.71	0.7682	0.0432	35.806
217.953	949.71	0.7680	0.0432	35.810
217.978	949.70	0.7678	0.0432	35.813
218.003	949.70	0.7676	0.0432	35.816
218.028	949.70	0.7674	0.0432	35.819
218.053	949.71	0.7673	0.0432	35.822
218.078	949.71	0.7672	0.0432	35.826
218.103	949.71	0.7671	0.0432	35.830
218.128	949.71	0.7670	0.0431	35.835
218.153	949.71	0.7668	0.0431	35.837
218.178	949.71	0.7666	0.0431	35.841
218.203	949.71	0.7665	0.0431	35.845
218.228	949.71	0.7663	0.0431	35.850
218.253	949.71	0.7662	0.0431	35.856
218.278	949.71	0.7660	0.0431	35.862
218.303	949.71	0.7659	0.0431	35.866
218.328	949.71	0.7657	0.0431	35.870
218.353	949.71	0.7656	0.0431	35.872
218.378	949.71	0.7654	0.0431	35.875
218.403	949.71	0.7653	0.0431	35.878
218.428	949.71	0.7651	0.0430	35.880
218.453	949.71	0.7651	0.0430	35.883
218.478	949.71	0.7650	0.0430	35.886
218.503	949.71	0.7649	0.0430	35.888
218.528	949.71	0.7648	0.0430	35.892
218.553	949.71	0.7646	0.0430	35.896
218.578	949.71	0.7644	0.0430	35.900
218.603	949.71	0.7643	0.0430	35.904
218.628	949.71	0.7641	0.0430	35.906
218.653	949.71	0.7639	0.0430	35.909
218.678	949.71	0.7637	0.0430	35.911
218.703	949.71	0.7635	0.0430	35.913
218.728	949.71	0.7633	0.0429	35.915
218.753	949.71	0.7631	0.0429	35.916
218.778	949.71	0.7629	0.0429	35.917
218.803	949.71	0.7628	0.0429	35.918
218.828	949.71	0.7626	0.0429	35.920
218.853	949.71	0.7624	0.0429	35.923
218.878	949.71	0.7622	0.0429	35.927
218.903	949.71	0.7619	0.0429	35.931
218.928	949.71	0.7617	0.0429	35.938
218.953	949.71	0.7615	0.0428	35.944
218.978	949.71	0.7614	0.0428	35.950
219.003	949.71	0.7612	0.0428	35.954
219.028	949.71	0.7611	0.0428	35.958
219.053	949.71	0.7609	0.0428	35.961
219.078	949.71	0.7608	0.0428	35.966
219.103	949.71	0.7606	0.0428	35.970
219.128	949.71	0.7605	0.0428	35.975
219.153	949.71	0.7603	0.0428	35.980
219.178	949.71	0.7600	0.0428	35.986
219.203	949.71	0.7598	0.0427	35.991
219.228	949.71	0.7596	0.0427	35.995
219.253	949.71	0.7594	0.0427	35.998
219.278	949.71	0.7593	0.0427	36.001
219.303	949.71	0.7592	0.0427	36.003
219.328	949.71	0.7591	0.0427	36.005
219.353	949.71	0.7590	0.0427	36.007
219.378	949.71	0.7588	0.0427	36.009
219.403	949.71	0.7586	0.0427	36.011
219.428	949.71	0.7584	0.0427	36.013
219.453	949.71	0.7581	0.0427	36.016
219.478	949.71	0.7579	0.0426	36.018
219.503	949.71	0.7578	0.0426	36.020
219.528	949.71	0.7576	0.0426	36.022
219.553	949.71	0.7573	0.0426	36.025
219.578	949.71	0.7571	0.0426	36.028
219.603	949.71	0.7569	0.0426	36.031
219.628	949.71	0.7567	0.0426	36.035
219.653	949.71	0.7565	0.0426	36.039
219.678	949.71	0.7564	0.0426	36.043
219.703	949.71	0.7562	0.0425	36.048
219.728	949.71	0.7561	0.0425	36.051
219.753	949.71	0.7560	0.0425	36.052
219.778	949.71	0.7559	0.0425	36.053
219.803	949.71	0.7558	0.0425	36.054
219.828	949.71	0.7557	0.0425	36.056
219.853	949.71	0.7555	0.0425	36.059
219.878	949.71	0.7554	0.0425	36.062
219.903	949.71	0.7552	0.0425	36.065
219.928	949.71	0.7551	0.0425	36.067
219.953	949.71	0.7549	0.0425	36.069
219.978	949.71	0.7547	0.0425	36.073
220.003	949.71	0.7546	0.0424	36.077
220.028	949.71	0.7544	0.0424	36.081
220.053	949.71	0.7542	0.0424	36.084
220.078	949.71	0.7541	0.0424	36.087
220.103	949.71	0.7539	0.0424	36.090
220.128	949.71	0.7538	0.0424	36.094
220.153	949.71	0.7536	0.0424	36.099
220.178	949.71	0.7535	0.0424	36.104
220.203	949.71	0.7533	0.0424	36.109
220.228	949.71	0.7530	0.0424	36.113
220.253	949.71	0.7528	0.0424	36.118
220.278	949.71	0.7526	0.0423	36.124
220.303	949.71	0.7524	0.0423	36.131
220.328	949.71	0.7523	0.0423	36.137
220.353	949.71	0.7522	0.0423	36.140
220.378	949.71	0.7520	0.0423	36.144
220.403	949.71	0.7517	0.0423	36.149
220.428	949.71	0.7515	0.0423	36.155
220.453	949.71	0.7513	0.0423	36.160
220.478	949.71	0.7512	0.0423	36.163
220.503	949.71	0.7511	0.0423	36.165
220.528	949.71	0.7511	0.0423	36.166
220.553	949.71	0.7510	0.0423	36.167
220.578	949.71	0.7509	0.0422	36.171
220.603	949.71	0.7507	0.0422	36.175
220.628	949.71	0.7505	0.0422	36.179
220.653	949.71	0.7503	0.0422	36.180
220.678	949.71	0.7501	0.0422	36.179
220.703	949.71	0.7499	0.0422	36.182
220.728	949.71	0.7498	0.0422	36.184
220.753	949.71	0.7496	0.0422	36.187
220.778	949.71	0.7493	0.0422	36.188
220.803	949.71	0.7491	0.0421	36.189
220.828	949.71	0.7488	0.0421	36.190
220.853	949.71	0.7486	0.0421	36.191
220.878	949.71	0.7483	0.0421	36.192
220.903	949.71	0.7482	0.0421	36.193
220.928	949.71	0.7480	0.0421	36.193
220.953	949.71	0.7478	0.0421	36.194
220.978	949.71	0.7476	0.0421	36.194
221.003	949.71	0.7474	0.0420	36.195
221.028	949.71	0.7471	0.0420	36.196
221.053	949.71	0.7468	0.0420	36.197
221.078	949.71	0.7466	0.0420	36.199
221.103	949.71	0.7463	0.0420	36.200
221.128	949.71	0.7461	0.0420	36.202
221.153	949.71	0.7459	0.0420	36.205
221.178	949.71	0.7457	0.0420	36.209
221.203	949.71	0.7455	0.0419	36.213
221.228	949.71	0.7454	0.0419	36.217
221.253	949.71	0.7452	0.0419	36.219
221.278	949.71	0.7450	0.0419	36.222
221.303	949.71	0.7449	0.0419	36.225
221.328	949.71	0.7447	0.0419	36.229
221.353	949.71	0.7445	0.0419	36.231
221.378	949.71	0.7444	0.0419	36.233
221.403	949.71	0.7443	0.0419	36.234
221.428	949.71	0.7441	0.0419	36.236
221.453	949.71	0.7440	0.0419	36.239
221.478	949.71	0.7438	0.0418	36.242
221.503	949.71	0.7436	0.0418	36.247
221.528	949.71	0.7433	0.0418	36.250
221.553	949.71	0.7431	0.0418	36.252
221.578	949.71	0.7429	0.0418	36.256
221.603	949.71	0.7427	0.0418	36.259
221.628	949.71	0.7425	0.0418	36.264
221.653	949.71	0.7424	0.0418	36.269
221.678	949.71	0.7422	0.0418	36.274
221.703	949.71	0.7420	0.0417	36.279
221.728	949.71	0.7418	0.0417	36.283
221.753	949.71	0.7417	0.0417	36.288
221.778	949.71	0.7415	0.0417	36.292
221.803	949.71	0.7414	0.0417	36.297
221.828	949.71	0.7412	0.0417	36.301
221.853	949.71	0.7412	0.0417	36.305
221.878	949.71	0.7411	0.0417	36.308
221.903	949.71	0.7409	0.0417	36.310
221.928	949.71	0.7408	0.0417	36.311
221.953	949.71	0.7406	0.0417	36.312
221.978	949.71	0.7403	0.0417	36.314
222.003	949.71	0.7402	0.0416	36.318
222.028	949.71	0.7400	0.0416	36.322
222.053	949.71	0.7399	0.0416	36.326
222.078	949.71	0.7398	0.0416	36.329
222.103	949.71	0.7397	0.0416	36.332
222.128	949.71	0.7395	0.0416	36.333
222.153	949.71	0.7394	0.0416	36.336
222.178	949.71	0.7392	0.0416	36.338
222.203	949.71	0.7391	0.0416	36.340
222.228	949.71	0.7390	0.0416	36.342
222.253	949.71	0.7389	0.0416	36.345
222.278	949.71	0.7388	0.0416	36.346
222.303	949.71	0.7387	0.0416	36.347
222.328	949.71	0.7385	0.0415	36.348
222.353	949.71	0.7384	0.0415	36.349
222.378	949.71	0.7382	0.0415	36.349
222.403	949.71	0.7379	0.0415	36.349
222.428	949.71	0.7377	0.0415	36.349
222.453	949.71	0.7375	0.0415	36.349
222.478	949.71	0.7373	0.0415	36.349
222.503	949.71	0.7371	0.0415	36.351
222.528	949.71	0.7370	0.0415	36.352
222.553	949.71	0.7369	0.0415	36.353
222.578	949.71	0.7368	0.0415	36.354
222.603	949.71	0.7367	0.0414	36.356
222.628	949.71	0.7366	0.0414	36.358
222.653	949.71	0.7365	0.0414	36.362
222.678	949.71	0.7363	0.0414	36.364
222.703	949.71	0.7361	0.0414	36.367
222.728	949.71	0.7359	0.0414	36.370
222.753	949.71	0.7357	0.0414	36.373
222.778	949.71	0.7355	0.0414	36.377
222.803	949.71	0.7353	0.0414	36.380
222.828	949.71	0.7351	0.0414	36.383
222.853	949.71	0.7349	0.0413	36.385
222.878	949.71	0.7348	0.0413	36.388
222.903	949.71	0.7346	0.0413	36.393
222.928	949.71	0.7345	0.0413	36.397
222.953	949.71	0.7343	0.0413	36.402
222.978	949.71	0.7342	0.0413	36.406
223.003	949.71	0.7340	0.0413	36.408
223.028	949.71	0.7339	0.0413	36.410
223.053	949.71	0.7337	0.0413	36.411
223.078	949.71	0.7336	0.0413	36.412
223.103	949.71	0.7335	0.0413	36.414
223.128	949.71	0.7333	0.0413	36.416
223.153	949.71	0.7330	0.0412	36.419
223.178	949.71	0.7327	0.0412	36.423
223.203	949.71	0.7325	0.0412	36.426
223.228	949.71	0.7323	0.0412	36.429
223.253	949.71	0.7321	0.0412	36.433
223.278	949.71	0.7318	0.0412	36.437
223.303	949.71	0.7316	0.0412	36.442
223.328	949.71	0.7313	0.0411	36.446
223.353	949.71	0.7311	0.0411	36.449
223.378	949.71	0.7310	0.0411	36.450
223.403	949.71	0.7308	0.0411	36.452
223.428	949.71	0.7307	0.0411	36.452
223.453	949.71	0.7306	0.0411	36.453
223.478	949.71	0.7305	0.0411	36.455
223.503	949.71	0.7303	0.0411	36.458
223.528	949.71	0.7301	0.0411	36.462
223.553	949.71	0.7300	0.0411	36.465
223.578	949.71	0.7298	0.0411	36.467
223.603	949.71	0.7296	0.0410	36.468
223.628	949.71	0.7295	0.0410	36.469
223.653	949.71	0.7293	0.0410	36.470
223.678	949.71	0.7292	0.0410	36.470
223.703	949.71	0.7290	0.0410	36.471
223.728	949.71	0.7289	0.0410	36.474
223.753	949.71	0.7286	0.0410	36.477
223.778	949.71	0.7284	0.0410	36.480
223.803	949.71	0.7281	0.0410	36.483
223.828	949.71	0.7279	0.0409	36.487
223.853	949.71	0.7277	0.0409	36.491
223.878	949.72	0.7275	0.0409	36.495
223.903	949.72	0.7274	0.0409	36.499
223.928	949.72	0.7273	0.0409	36.502
223.953	949.72	0.7272	0.0409	36.505
223.978	949.72	0.7271	0.0409	36.508
224.003	949.72	0.7270	0.0409	36.511
224.028	949.71	0.7268	0.0409	36.515
224.053	949.71	0.7267	0.0409	36.519
224.078	949.71	0.7265	0.0409	36.523
224.103	949.71	0.7263	0.0409	36.526
224.128	949.71	0.7261	0.0408	36.531
224.153	949.71	0.7259	0.0408	36.536
224.178	949.71	0.7256	0.0408	36.541
224.203	949.71	0.7254	0.0408	36.545
224.228	949.71	0.7251	0.0408	36.550
224.253	949.71	0.7249	0.0408	36.555
224.278	949.71	0.7247	0.0408	36.561
224.303	949.71	0.7245	0.0408	36.567
224.328	949.71	0.7243	0.0407	36.572
224.353	949.71	0.7241	0.0407	36.577
224.378	949.71	0.7239	0.0407	36.581
224.403	949.71	0.7238	0.0407	36.584
224.428	949.71	0.7236	0.0407	36.586
224.453	949.71	0.7235	0.0407	36.588
224.478	949.72	0.7233	0.0407	36.591
224.503	949.72	0.7231	0.0407	36.595
224.528	949.72	0.7229	0.0407	36.598
224.553	949.72	0.7227	0.0407	36.601
224.578	949.72	0.7225	0.0406	36.603
224.603	949.72	0.7224	0.0406	36.605
224.628	949.72	0.7222	0.0406	36.607
224.653	949.72	0.7221	0.0406	36.610
224.678	949.72	0.7220	0.0406	36.613
224.703	949.72	0.7217	0.0406	36.618
224.728	949.72	0.7215	0.0406	36.622
224.753	949.72	0.7213	0.0406	36.624
224.778	949.72	0.7211	0.0406	36.626
224.803	949.72	0.7209	0.0406	36.628
224.828	949.72	0.7207	0.0405	36.630
224.853	949.72	0.7205	0.0405	36.633
224.878	949.72	0.7202	0.0405	36.637
224.903	949.72	0.7200	0.0405	36.641
224.928	949.72	0.7197	0.0405	36.644
224.953	949.72	0.7196	0.0405	36.645
224.978	949.72	0.7195	0.0405	36.647
225.003	949.72	0.7193	0.0405	36.648
225.028	949.72	0.7191	0.0405	36.651
225.053	949.72	0.7189	0.0404	36.653
225.078	949.72	0.7187	0.0404	36.656
225.103	949.72	0.7185	0.0404	36.658
225.128	949.72	0.7183	0.0404	36.660
225.153	949.72	0.7182	0.0404	36.662
225.178	949.72	0.7180	0.0404	36.663
225.203	949.72	0.7178	0.0404	36.665
225.228	949.72	0.7176	0.0404	36.665
225.253	949.72	0.7175	0.0404	36.667
225.278	949.72	0.7174	0.0404	36.669
225.303	949.72	0.7172	0.0403	36.672
225.328	949.72	0.7170	0.0403	36.676
225.353	949.72	0.7168	0.0403	36.679
225.378	949.72	0.7165	0.0403	36.682
225.403	949.72	0.7163	0.0403	36.687
225.428	949.72	0.7161	0.0403	36.693
225.453	949.72	0.7159	0.0403	36.701
225.478	949.72	0.7158	0.0403	36.708
225.503	949.72	0.7156	0.0403	36.715
225.528	949.72	0.7154	0.0402	36.720
225.553	949.72	0.7152	0.0402	36.724
225.578	949.72	0.7151	0.0402	36.727
225.603	949.72	0.7149	0.0402	36.730
225.628	949.72	0.7148	0.0402	36.732
225.653	949.72	0.7146	0.0402	36.733
225.678	949.72	0.7145	0.0402	36.734
225.703	949.72	0.7143	0.0402	36.735
225.728	949.72	0.7140	0.0402	36.737
225.753	949.72	0.7138	0.0402	36.738
225.778	949.72	0.7136	0.0401	36.740
225.803	949.72	0.7135	0.0401	36.743
225.828	949.72	0.7133	0.0401	36.745
225.853	949.72	0.7131	0.0401	36.747
225.878	949.72	0.7129	0.0401	36.749
225.903	949.72	0.7127	0.0401	36.751
225.928	949.72	0.7124	0.0401	36.754
225.953	949.72	0.7122	0.0401	36.755
225.978	949.72	0.7121	0.0401	36.757
226.003	949.72	0.7119	0.0401	36.759
226.028	949.72	0.7118	0.0400	36.761
226.053	949.72	0.7116	0.0400	36.762
226.078	949.72	0.7115	0.0400	36.762
226.103	949.72	0.7114	0.0400	36.764
226.128	949.72	0.7113	0.0400	36.766
226.153	949.72	0.7112	0.0400	36.769
226.178	949.72	0.7110	0.0400	36.771
226.203	949.72	0.7109	0.0400	36.773
226.228	949.72	0.7108	0.0400	36.776
226.253	949.72	0.7106	0.0400	36.781
226.278	949.72	0.7104	0.0400	36.786
226.303	949.72	0.7102	0.0400	36.792
226.328	949.72	0.7100	0.0399	36.798
226.353	949.72	0.7098	0.0399	36.803
226.378	949.72	0.7097	0.0399	36.808
226.403	949.72	0.7095	0.0399	36.812
226.428	949.72	0.7093	0.0399	36.816
226.453	949.72	0.7091	0.0399	36.820
226.478	949.72	0.7089	0.0399	36.825
226.503	949.72	0.7087	0.0399	36.828
226.528	949.72	0.7085	0.0399	36.833
226.553	949.72	0.7083	0.0398	36.837
226.578	949.72	0.7081	0.0398	36.842
226.603	949.72	0.7079	0.0398	36.845
226.628	949.72	0.7077	0.0398	36.847
226.653	949.72	0.7074	0.0398	36.849
226.678	949.72	0.7071	0.0398	36.849
226.703	949.72	0.7069	0.0398	36.849
226.728	949.72	0.7068	0.0398	36.850
226.753	949.72	0.7066	0.0398	36.850
226.778	949.72	0.7064	0.0397	36.851
226.803	949.72	0.7063	0.0397	36.854
226.828	949.72	0.7062	0.0397	36.857
226.853	949.72	0.7061	0.0397	36.861
226.878	949.72	0.7059	0.0397	36.864
226.903	949.72	0.7059	0.0397	36.867
226.928	949.72	0.7058	0.0397	36.869
226.953	949.72	0.7057	0.0397	36.872
226.978	949.72	0.7055	0.0397	36.875
227.003	949.72	0.7053	0.0397	36.878
227.028	949.72	0.7052	0.0397	36.881
227.053	949.72	0.7051	0.0397	36.884
227.078	949.72	0.7049	0.0397	36.887
227.103	949.72	0.7047	0.0396	36.890
227.128	949.72	0.7046	0.0396	36.892
227.153	949.72	0.7045	0.0396	36.893
227.178	949.72	0.7044	0.0396	36.894
227.203	949.72	0.7043	0.0396	36.894
227.228	949.72	0.7041	0.0396	36.896
227.253	949.72	0.7040	0.0396	36.897
227.278	949.72	0.7039	0.0396	36.896
227.303	949.72	0.7038	0.0396	36.895
227.328	949.72	0.7037	0.0396	36.894
227.353	949.72	0.7035	0.0396	36.896
227.378	949.72	0.7034	0.0396	36.897
227.403	949.72	0.7032	0.0396	36.898
227.428	949.72	0.7031	0.0396	36.900
227.453	949.72	0.7029	0.0395	36.903
227.478	949.72	0.7027	0.0395	36.905
227.503	949.72	0.7025	0.0395	36.910
227.528	949.72	0.7023	0.0395	36.915
227.553	949.72	0.7021	0.0395	36.921
227.578	949.72	0.7019	0.0395	36.926
227.603	949.72	0.7017	0.0395	36.930
227.628	949.72	0.7016	0.0395	36.933
227.653	949.72	0.7014	0.0395	36.936
227.678	949.72	0.7012	0.0395	36.939
227.703	949.72	0.7010	0.0394	36.942
227.728	949.72	0.7007	0.0394	36.945
227.753	949.72	0.7004	0.0394	36.948
227.778	949.72	0.7002	0.0394	36.952
227.803	949.72	0.7000	0.0394	36.955
227.828	949.72	0.6998	0.0394	36.959
227.853	949.72	0.6995	0.0394	36.961
227.878	949.72	0.6993	0.0393	36.963
227.903	949.72	0.6992	0.0393	36.964
227.928	949.72	0.6990	0.0393	36.965
227.953	949.72	0.6988	0.0393	36.966
227.978	949.72	0.6986	0.0393	36.968
228.003	949.72	0.6984	0.0393	36.970
228.028	949.72	0.6983	0.0393	36.974
228.053	949.72	0.6981	0.0393	36.979
228.078	949.72	0.6979	0.0393	36.984
228.103	949.72	0.6977	0.0393	36.987
228.128	949.72	0.6975	0.0392	36.992
228.153	949.72	0.6973	0.0392	36.996
228.178	949.72	0.6971	0.0392	37.000
228.203	949.72	0.6968	0.0392	37.003
228.228	949.72	0.6966	0.0392	37.005
228.253	949.72	0.6964	0.0392	37.006
228.278	949.72	0.6962	0.0392	37.007
228.303	949.72	0.6960	0.0392	37.008
228.328	949.72	0.6958	0.0391	37.010
228.353	949.72	0.6956	0.0391	37.013
228.378	949.72	0.6954	0.0391	37.015
228.403	949.72	0.6952	0.0391	37.018
228.428	949.72	0.6949	0.0391	37.020
228.453	949.72	0.6948	0.0391	37.023
228.478	949.72	0.6946	0.0391	37.025
228.503	949.72	0.6944	0.0391	37.027
228.528	949.72	0.6943	0.0391	37.028
228.553	949.72	0.6941	0.0391	37.029
228.578	949.72	0.6940	0.0390	37.031
228.603	949.72	0.6938	0.0390	37.033
228.628	949.72	0.6936	0.0390	37.036
228.653	949.72	0.6934	0.0390	37.040
228.678	949.72	0.6932	0.0390	37.043
228.703	949.72	0.6931	0.0390	37.049
228.728	949.72	0.6929	0.0390	37.056
228.753	949.72	0.6928	0.0390	37.061
228.778	949.72	0.6926	0.0390	37.065
228.803	949.72	0.6925	0.0390	37.067
228.828	949.72	0.6923	0.0389	37.070
228.853	949.72	0.6922	0.0389	37.074
228.878	949.72	0.6920	0.0389	37.078
228.903	949.72	0.6919	0.0389	37.082
228.928	949.72	0.6917	0.0389	37.085
228.953	949.72	0.6916	0.0389	37.088
228.978	949.72	0.6915	0.0389	37.091
229.003	949.72	0.6913	0.0389	37.094
229.028	949.72	0.6912	0.0389	37.096
229.053	949.72	0.6911	0.0389	37.097
229.078	949.72	0.6909	0.0389	37.099
229.103	949.72	0.6908	0.0389	37.102
229.128	949.72	0.6906	0.0389	37.104
229.153	949.72	0.6904	0.0388	37.107
229.178	949.72	0.6902	0.0388	37.110
229.203	949.72	0.6901	0.0388	37.113
229.228	949.72	0.6899	0.0388	37.116
229.253	949.72	0.6897	0.0388	37.117
229.278	949.72	0.6896	0.0388	37.118
229.303	949.72	0.6894	0.0388	37.120
229.328	949.72	0.6892	0.0388	37.124
229.353	949.72	0.6890	0.0388	37.128
229.378	949.72	0.6889	0.0388	37.133
229.403	949.72	0.6887	0.0387	37.136
229.428	949.72	0.6886	0.0387	37.139
229.453	949.73	0.6884	0.0387	37.143
229.478	949.72	0.6882	0.0387	37.148
229.503	949.72	0.6880	0.0387	37.152
229.528	949.72	0.6879	0.0387	37.156
229.553	949.73	0.6877	0.0387	37.161
229.578	949.73	0.6875	0.0387	37.165
229.603	949.73	0.6873	0.0387	37.169
229.628	949.73	0.6871	0.0387	37.172
229.653	949.72	0.6868	0.0386	37.174
229.678	949.72	0.6866	0.0386	37.176
229.703	949.72	0.6864	0.0386	37.178
229.728	949.72	0.6861	0.0386	37.181
229.753	949.73	0.6859	0.0386	37.184
229.778	949.73	0.6857	0.0386	37.187
229.803	949.73	0.6855	0.0386	37.189
229.828	949.73	0.6853	0.0386	37.192
229.853	949.73	0.6850	0.0385	37.192
229.878	949.73	0.6848	0.0385	37.193
229.903	949.73	0.6846	0.0385	37.193
229.928	949.73	0.6845	0.0385	37.193
229.953	949.73	0.6843	0.0385	37.193
229.978	949.73	0.6841	0.0385	37.194
230.003	949.73	0.6839	0.0385	37.196
230.028	949.73	0.6837	0.0385	37.199
230.053	949.73	0.6835	0.0385	37.202
230.078	949.73	0.6833	0.0384	37.206
230.103	949.73	0.6831	0.0384	37.209
230.128	949.73	0.6830	0.0384	37.212
230.153	949.73	0.6828	0.0384	37.215
230.178	949.73	0.6826	0.0384	37.218
230.203	949.73	0.6824	0.0384	37.222
230.228		0.6821	0.0384
230.245		0.6819	0.0384