File: _test/MIS_1.txt
Time	Temperature	Weight	Weight	Heat Flow
min	°C	%	mg	mW
0.003		100.0367	5.8126
0.012		100.0991	5.8163
0.020		100.1583	5.8197
0.028		100.2107	5.8228
0.037		100.2542	5.8253
0.045	25.76	100.2885	5.8273	-22.772
0.053	25.83	100.3142	5.8288	-22.745
0.062	25.91	100.3315	5.8298	-22.716
0.070	25.99	100.3416	5.8304	-22.686
0.078	26.07	100.3461	5.8306	-22.659
0.087	26.14	100.3474	5.8307	-22.632
0.095	26.22	100.3476	5.8307	-22.607
0.103	26.30	100.3476	5.8307	-22.583
0.112	26.37	100.3472	5.8307	-22.559
0.120	26.45	100.3467	5.8307	-22.535
0.128	26.52	100.3459	5.8306	-22.513
0.137	26.60	100.3450	5.8306	-22.491
0.145	26.67	100.3439	5.8305	-22.469
0.153	26.74	100.3425	5.8304	-22.447
0.162	26.82	100.3410	5.8303	-22.426
0.170	26.89	100.3393	5.8302	-22.406
0.178	26.96	100.3374	5.8301	-22.386
0.187	27.03	100.3354	5.8300	-22.366
0.195	27.11	100.3332	5.8299	-22.347
0.203	27.18	100.3308	5.8297	-22.329
0.212	27.25	100.3282	5.8296	-22.311
0.220	27.32	100.3255	5.8294	-22.293
0.228	27.39	100.3226	5.8293	-22.276
0.237	27.46	100.3196	5.8291	-22.259
0.245	27.53	100.3164	5.8289	-22.241
0.253	27.60	100.3131	5.8287	-22.224
0.262	27.67	100.3095	5.8285	-22.207
0.270	27.73	100.3058	5.8283	-22.190
0.278	27.80	100.3020	5.8281	-22.173
0.287	27.87	100.2980	5.8278	-22.157
0.295	27.94	100.2938	5.8276	-22.140
0.303	28.00	100.2894	5.8273	-22.124
0.312	28.07	100.2849	5.8271	-22.108
0.320	28.14	100.2803	5.8268	-22.093
0.328	28.20	100.2755	5.8265	-22.078
0.337	28.27	100.2705	5.8262	-22.063
0.345	28.33	100.2654	5.8259	-22.049
0.353	28.40	100.2601	5.8256	-22.035
0.362	28.46	100.2547	5.8253	-22.021
0.370	28.52	100.2492	5.8250	-22.006
0.378	28.59	100.2435	5.8247	-21.992
0.387	28.65	100.2377	5.8243	-21.977
0.395	28.71	100.2317	5.8240	-21.963
0.403	28.77	100.2257	5.8236	-21.949
0.412	28.84	100.2195	5.8233	-21.934
0.420	28.90	100.2131	5.8229	-21.921
0.428	28.96	100.2067	5.8225	-21.906
0.437	29.02	100.2002	5.8221	-21.892
0.445	29.08	100.1936	5.8218	-21.878
0.453	29.14	100.1868	5.8214	-21.864
0.462	29.20	100.1800	5.8210	-21.850
0.470	29.26	100.1730	5.8206	-21.836
0.478	29.32	100.1660	5.8202	-21.823
0.487	29.38	100.1589	5.8197	-21.809
0.495	29.44	100.1517	5.8193	-21.796
0.503	29.49	100.1445	5.8189	-21.783
0.512	29.55	100.1371	5.8185	-21.769
0.520	29.61	100.1297	5.8180	-21.756
0.528	29.67	100.1222	5.8176	-21.742
0.537	29.72	100.1146	5.8172	-21.729
0.545	29.78	100.1070	5.8167	-21.715
0.553	29.83	100.0993	5.8163	-21.702
0.562	29.89	100.0916	5.8158	-21.689
0.570	29.94	100.0838	5.8154	-21.676
0.578	30.00	100.0759	5.8149	-21.662
0.587	30.05	100.0680	5.8145	-21.648
0.595	30.11	100.0600	5.8140	-21.635
0.603	30.16	100.0520	5.8135	-21.621
0.612	30.21	100.0439	5.8131	-21.608
0.620	30.27	100.0357	5.8126	-21.594
0.628	30.32	100.0275	5.8121	-21.580
0.637	30.37	100.0193	5.8116	-21.565
0.645	30.42	100.0110	5.8112	-21.551
0.653	30.48	100.0027	5.8107	-21.537
0.662	30.53	99.9944	5.8102	-21.522
0.670	30.58	99.9860	5.8097	-21.508
0.678	30.63	99.9776	5.8092	-21.494
0.687	30.68	99.9691	5.8087	-21.479
0.695	30.73	99.9607	5.8082	-21.465
0.703	30.78	99.9522	5.8077	-21.451
0.712	30.83	99.9437	5.8072	-21.438
0.720	30.88	99.9352	5.8067	-21.424
0.728	30.93	99.9266	5.8062	-21.409
0.737	30.98	99.9181	5.8057	-21.395
0.745	31.03	99.9095	5.8053	-21.381
0.753	31.08	99.9009	5.8048	-21.367
0.762	31.13	99.8922	5.8042	-21.353
0.770	31.18	99.8836	5.8037	-21.339
0.778	31.23	99.8750	5.8032	-21.325
0.787	31.28	99.8663	5.8027	-21.310
0.795	31.32	99.8576	5.8022	-21.295
0.803	31.37	99.8490	5.8017	-21.281
0.812	31.42	99.8403	5.8012	-21.266
0.820	31.47	99.8316	5.8007	-21.251
0.828	31.52	99.8230	5.8002	-21.236
0.837	31.57	99.8143	5.7997	-21.221
0.845	31.61	99.8056	5.7992	-21.205
0.853	31.66	99.7969	5.7987	-21.190
0.862	31.71	99.7882	5.7982	-21.175
0.870	31.76	99.7795	5.7977	-21.161
0.878	31.81	99.7709	5.7972	-21.147
0.887	31.85	99.7622	5.7967	-21.132
0.895	31.90	99.7535	5.7962	-21.119
0.903	31.95	99.7448	5.7957	-21.105
0.912	32.00	99.7361	5.7952	-21.092
0.920	32.04	99.7274	5.7947	-21.077
0.928	32.09	99.7187	5.7942	-21.063
0.937	32.14	99.7101	5.7937	-21.049
0.945	32.19	99.7015	5.7932	-21.034
0.953	32.24	99.6928	5.7927	-21.020
0.962	32.29	99.6842	5.7922	-21.007
0.970	32.33	99.6756	5.7917	-20.993
0.978	32.38	99.6671	5.7912	-20.979
0.987	32.43	99.6585	5.7907	-20.964
0.995	32.48	99.6500	5.7902	-20.950
1.003	32.53	99.6415	5.7897	-20.937
1.012	32.58	99.6331	5.7892	-20.924
1.020	32.63	99.6246	5.7887	-20.911
1.028	32.68	99.6162	5.7882	-20.897
1.037	32.73	99.6078	5.7877	-20.882
1.045	32.78	99.5994	5.7872	-20.868
1.053	32.83	99.5910	5.7867	-20.854
1.062	32.88	99.5826	5.7863	-20.841
1.070	32.93	99.5743	5.7858	-20.827
1.078	32.98	99.5659	5.7853	-20.812
1.087	33.03	99.5576	5.7848	-20.797
1.095	33.09	99.5493	5.7843	-20.782
1.103	33.14	99.5410	5.7838	-20.767
1.112	33.19	99.5328	5.7834	-20.753
1.120	33.24	99.5246	5.7829	-20.739
1.128	33.29	99.5164	5.7824	-20.725
1.137	33.35	99.5082	5.7819	-20.709
1.145	33.40	99.5000	5.7815	-20.694
1.153	33.45	99.4919	5.7810	-20.680
1.162	33.51	99.4837	5.7805	-20.666
1.170	33.56	99.4756	5.7800	-20.652
1.178	33.61	99.4675	5.7796	-20.637
1.187	33.67	99.4594	5.7791	-20.623
1.195	33.72	99.4513	5.7786	-20.608
1.203	33.78	99.4432	5.7782	-20.594
1.212	33.83	99.4352	5.7777	-20.580
1.220	33.89	99.4271	5.7772	-20.565
1.228	33.94	99.4191	5.7768	-20.550
1.237	34.00	99.4110	5.7763	-20.536
1.245	34.05	99.4030	5.7758	-20.522
1.253	34.11	99.3950	5.7754	-20.507
1.262	34.16	99.3870	5.7749	-20.492
1.270	34.22	99.3789	5.7744	-20.476
1.278	34.28	99.3709	5.7740	-20.460
1.287	34.34	99.3629	5.7735	-20.445
1.295	34.39	99.3550	5.7730	-20.429
1.303	34.45	99.3470	5.7726	-20.414
1.312	34.51	99.3390	5.7721	-20.398
1.320	34.57	99.3311	5.7716	-20.382
1.328	34.63	99.3231	5.7712	-20.365
1.337	34.69	99.3152	5.7707	-20.349
1.345	34.74	99.3073	5.7703	-20.332
1.353	34.80	99.2994	5.7698	-20.316
1.362	34.86	99.2915	5.7693	-20.299
1.370	34.92	99.2836	5.7689	-20.282
1.378	34.98	99.2757	5.7684	-20.264
1.387	35.04	99.2678	5.7680	-20.246
1.395	35.11	99.2599	5.7675	-20.228
1.403	35.17	99.2521	5.7671	-20.210
1.412	35.23	99.2442	5.7666	-20.192
1.420	35.29	99.2363	5.7661	-20.175
1.428	35.35	99.2284	5.7657	-20.156
1.437	35.41	99.2205	5.7652	-20.138
1.445	35.48	99.2126	5.7648	-20.121
1.453	35.54	99.2048	5.7643	-20.103
1.462	35.60	99.1969	5.7638	-20.085
1.470	35.67	99.1890	5.7634	-20.067
1.478	35.73	99.1811	5.7629	-20.050
1.487	35.80	99.1732	5.7625	-20.032
1.495	35.86	99.1653	5.7620	-20.013
1.503	35.93	99.1575	5.7616	-19.994
1.512	35.99	99.1496	5.7611	-19.975
1.520	36.06	99.1417	5.7606	-19.956
1.528	36.12	99.1338	5.7602	-19.937
1.537	36.19	99.1260	5.7597	-19.918
1.545	36.25	99.1181	5.7593	-19.899
1.553	36.32	99.1102	5.7588	-19.880
1.562	36.39	99.1024	5.7584	-19.860
1.570	36.45	99.0946	5.7579	-19.840
1.578	36.52	99.0868	5.7574	-19.820
1.587	36.59	99.0789	5.7570	-19.800
1.595	36.66	99.0711	5.7565	-19.781
1.603	36.73	99.0632	5.7561	-19.761
1.612	36.79	99.0554	5.7556	-19.740
1.620	36.86	99.0475	5.7552	-19.720
1.628	36.93	99.0397	5.7547	-19.699
1.637	37.00	99.0318	5.7543	-19.678
1.645	37.07	99.0240	5.7538	-19.658
1.653	37.14	99.0161	5.7533	-19.637
1.662	37.21	99.0082	5.7529	-19.617
1.670	37.28	99.0003	5.7524	-19.597
1.678	37.35	98.9925	5.7520	-19.575
1.687	37.42	98.9846	5.7515	-19.555
1.695	37.50	98.9767	5.7510	-19.534
1.703	37.57	98.9688	5.7506	-19.513
1.712	37.64	98.9608	5.7501	-19.492
1.720	37.71	98.9529	5.7497	-19.472
1.728	37.78	98.9450	5.7492	-19.451
1.737	37.86	98.9370	5.7487	-19.429
1.745	37.93	98.9291	5.7483	-19.407
1.753	38.00	98.9211	5.7478	-19.385
1.762	38.08	98.9132	5.7474	-19.364
1.770	38.15	98.9052	5.7469	-19.342
1.778	38.23	98.8972	5.7464	-19.320
1.787	38.30	98.8892	5.7460	-19.298
1.795	38.38	98.8812	5.7455	-19.276
1.803	38.45	98.8733	5.7450	-19.254
1.812	38.53	98.8653	5.7446	-19.231
1.820	38.60	98.8573	5.7441	-19.209
1.828	38.68	98.8493	5.7436	-19.187
1.837	38.75	98.8413	5.7432	-19.165
1.845	38.83	98.8333	5.7427	-19.142
1.853	38.91	98.8252	5.7423	-19.119
1.862	38.98	98.8172	5.7418	-19.097
1.870	39.06	98.8092	5.7413	-19.074
1.878	39.14	98.8012	5.7409	-19.052
1.887	39.21	98.7932	5.7404	-19.029
1.895	39.29	98.7851	5.7399	-19.007
1.903	39.37	98.7771	5.7395	-18.983
1.912	39.45	98.7691	5.7390	-18.960
1.920	39.53	98.7610	5.7385	-18.937
1.928	39.60	98.7530	5.7381	-18.915
1.937	39.68	98.7450	5.7376	-18.892
1.945	39.76	98.7369	5.7371	-18.868
1.953	39.84	98.7288	5.7366	-18.844
1.962	39.92	98.7208	5.7362	-18.820
1.970	40.00	98.7127	5.7357	-18.796
1.978	40.08	98.7046	5.7352	-18.772
1.987	40.16	98.6965	5.7348	-18.747
1.995	40.24	98.6884	5.7343	-18.722
2.003	40.32	98.6803	5.7338	-18.697
2.012	40.40	98.6722	5.7334	-18.672
2.020	40.49	98.6641	5.7329	-18.647
2.028	40.57	98.6560	5.7324	-18.624
2.037	40.65	98.6479	5.7319	-18.599
2.045	40.73	98.6398	5.7315	-18.573
2.053	40.81	98.6317	5.7310	-18.549
2.062	40.89	98.6235	5.7305	-18.524
2.070	40.97	98.6154	5.7301	-18.500
2.078	41.06	98.6072	5.7296	-18.475
2.087	41.14	98.5991	5.7291	-18.451
2.095	41.22	98.5909	5.7286	-18.425
2.103	41.31	98.5827	5.7282	-18.400
2.112	41.39	98.5745	5.7277	-18.374
2.120	41.47	98.5663	5.7272	-18.350
2.128	41.56	98.5581	5.7267	-18.325
2.137	41.64	98.5499	5.7263	-18.299
2.145	41.72	98.5417	5.7258	-18.273
2.153	41.81	98.5335	5.7253	-18.248
2.162	41.89	98.5253	5.7248	-18.222
2.170	41.98	98.5170	5.7243	-18.197
2.178	42.06	98.5088	5.7239	-18.172
2.187	42.15	98.5005	5.7234	-18.147
2.195	42.23	98.4923	5.7229	-18.121
2.203	42.31	98.4840	5.7224	-18.094
2.212	42.40	98.4757	5.7219	-18.068
2.220	42.48	98.4674	5.7215	-18.042
2.228	42.57	98.4591	5.7210	-18.015
2.237	42.66	98.4508	5.7205	-17.989
2.245	42.74	98.4425	5.7200	-17.963
2.253	42.83	98.4342	5.7195	-17.936
2.262	42.91	98.4259	5.7190	-17.909
2.270	43.00	98.4175	5.7186	-17.882
2.278	43.09	98.4091	5.7181	-17.855
2.287	43.17	98.4008	5.7176	-17.828
2.295	43.26	98.3924	5.7171	-17.801
2.303	43.34	98.3840	5.7166	-17.774
2.312	43.43	98.3756	5.7161	-17.747
2.320	43.52	98.3672	5.7156	-17.719
2.328	43.60	98.3587	5.7151	-17.693
2.337	43.69	98.3503	5.7147	-17.666
2.345	43.78	98.3418	5.7142	-17.638
2.353	43.87	98.3334	5.7137	-17.610
2.362	43.95	98.3249	5.7132	-17.582
2.370	44.04	98.3164	5.7127	-17.555
2.378	44.13	98.3079	5.7122	-17.528
2.387	44.22	98.2993	5.7117	-17.500
2.395	44.31	98.2908	5.7112	-17.471
2.403	44.39	98.2823	5.7107	-17.443
2.412	44.48	98.2737	5.7102	-17.415
2.420	44.57	98.2651	5.7097	-17.386
2.428	44.66	98.2565	5.7092	-17.358
2.437	44.75	98.2479	5.7087	-17.329
2.445	44.84	98.2393	5.7082	-17.300
2.453	44.92	98.2307	5.7077	-17.272
2.462	45.01	98.2220	5.7072	-17.243
2.470	45.10	98.2134	5.7067	-17.214
2.478	45.19	98.2048	5.7062	-17.185
2.487	45.28	98.1961	5.7057	-17.157
2.495	45.37	98.1874	5.7052	-17.128
2.503	45.46	98.1788	5.7047	-17.099
2.512	45.54	98.1701	5.7042	-17.070
2.520	45.63	98.1614	5.7037	-17.041
2.528	45.72	98.1527	5.7032	-17.012
2.537	45.81	98.1439	5.7027	-16.982
2.545	45.90	98.1352	5.7022	-16.953
2.553	45.99	98.1265	5.7016	-16.924
2.562	46.08	98.1177	5.7011	-16.894
2.570	46.17	98.1089	5.7006	-16.865
2.578	46.26	98.1002	5.7001	-16.835
2.587	46.35	98.0914	5.6996	-16.805
2.595	46.44	98.0826	5.6991	-16.775
2.603	46.53	98.0738	5.6986	-16.745
2.612	46.62	98.0650	5.6981	-16.715
2.620	46.71	98.0562	5.6976	-16.686
2.628	46.80	98.0473	5.6971	-16.656
2.637	46.89	98.0385	5.6965	-16.626
2.645	46.98	98.0296	5.6960	-16.596
2.653	47.07	98.0207	5.6955	-16.565
2.662	47.16	98.0118	5.6950	-16.535
2.670	47.25	98.0029	5.6945	-16.505
2.678	47.34	97.9940	5.6940	-16.474
2.687	47.43	97.9851	5.6934	-16.444
2.695	47.52	97.9762	5.6929	-16.414
2.703	47.61	97.9672	5.6924	-16.383
2.712	47.70	97.9583	5.6919	-16.353
2.720	47.79	97.9493	5.6914	-16.322
2.728	47.88	97.9403	5.6908	-16.291
2.737	47.97	97.9314	5.6903	-16.261
2.745	48.06	97.9224	5.6898	-16.230
2.753	48.15	97.9134	5.6893	-16.198
2.762	48.24	97.9044	5.6887	-16.167
2.770	48.34	97.8954	5.6882	-16.136
2.778	48.43	97.8864	5.6877	-16.104
2.787	48.52	97.8773	5.6872	-16.072
2.795	48.61	97.8682	5.6866	-16.040
2.803	48.70	97.8592	5.6861	-16.008
2.812	48.79	97.8501	5.6856	-15.976
2.820	48.88	97.8410	5.6851	-15.945
2.828	48.97	97.8319	5.6845	-15.913
2.837	49.06	97.8228	5.6840	-15.881
2.845	49.15	97.8137	5.6835	-15.850
2.853	49.24	97.8046	5.6829	-15.818
2.862	49.33	97.7954	5.6824	-15.787
2.870	49.42	97.7862	5.6819	-15.756
2.878	49.52	97.7771	5.6813	-15.724
2.887	49.61	97.7679	5.6808	-15.693
2.895	49.70	97.7587	5.6803	-15.661
2.903	49.79	97.7495	5.6797	-15.629
2.912	49.88	97.7403	5.6792	-15.597
2.920	49.97	97.7310	5.6787	-15.565
2.928	50.06	97.7218	5.6781	-15.534
2.937	50.15	97.7126	5.6776	-15.502
2.945	50.24	97.7034	5.6771	-15.470
2.953	50.33	97.6941	5.6765	-15.438
2.962	50.42	97.6849	5.6760	-15.406
2.970	50.51	97.6756	5.6755	-15.374
2.978	50.60	97.6663	5.6749	-15.342
2.987	50.69	97.6570	5.6744	-15.310
2.995	50.78	97.6477	5.6738	-15.278
3.003	50.87	97.6384	5.6733	-15.246
3.012	50.97	97.6291	5.6727	-15.213
3.020	51.06	97.6198	5.6722	-15.180
3.028	51.15	97.6105	5.6717	-15.147
3.037	51.24	97.6012	5.6711	-15.114
3.045	51.33	97.5919	5.6706	-15.081
3.053	51.42	97.5825	5.6700	-15.048
3.062	51.51	97.5732	5.6695	-15.015
3.070	51.60	97.5639	5.6690	-14.982
3.078	51.69	97.5546	5.6684	-14.949
3.087	51.78	97.5452	5.6679	-14.916
3.095	51.87	97.5359	5.6673	-14.884
3.103	51.96	97.5265	5.6668	-14.851
3.112	52.05	97.5172	5.6662	-14.818
3.120	52.14	97.5078	5.6657	-14.785
3.128	52.23	97.4985	5.6652	-14.752
3.137	52.32	97.4891	5.6646	-14.718
3.145	52.41	97.4797	5.6641	-14.685
3.153	52.51	97.4703	5.6635	-14.651
3.162	52.60	97.4609	5.6630	-14.617
3.170	52.69	97.4515	5.6624	-14.584
3.178	52.78	97.4421	5.6619	-14.550
3.187	52.87	97.4326	5.6613	-14.516
3.195	52.96	97.4232	5.6608	-14.482
3.203	53.05	97.4138	5.6602	-14.449
3.212	53.14	97.4043	5.6597	-14.415
3.220	53.23	97.3949	5.6591	-14.381
3.228	53.32	97.3854	5.6586	-14.347
3.237	53.41	97.3760	5.6580	-14.313
3.245	53.50	97.3665	5.6575	-14.279
3.253	53.59	97.3570	5.6569	-14.245
3.262	53.68	97.3476	5.6564	-14.211
3.270	53.77	97.3381	5.6558	-14.177
3.278	53.86	97.3287	5.6553	-14.144
3.287	53.95	97.3192	5.6547	-14.110
3.295	54.04	97.3097	5.6542	-14.077
3.303	54.13	97.3003	5.6536	-14.045
3.312	54.22	97.2908	5.6531	-14.012
3.320	54.31	97.2814	5.6525	-13.979
3.328	54.40	97.2719	5.6520	-13.945
3.337	54.49	97.2625	5.6514	-13.912
3.345	54.58	97.2530	5.6509	-13.879
3.353	54.66	97.2435	5.6503	-13.845
3.362	54.75	97.2341	5.6498	-13.811
3.370	54.84	97.2246	5.6492	-13.777
3.378	54.93	97.2151	5.6487	-13.743
3.387	55.02	97.2057	5.6481	-13.708
3.395	55.11	97.1962	5.6476	-13.674
3.403	55.20	97.1867	5.6470	-13.639
3.412	55.29	97.1772	5.6465	-13.605
3.420	55.38	97.1678	5.6459	-13.571
3.428	55.47	97.1583	5.6454	-13.537
3.437	55.56	97.1488	5.6448	-13.502
3.445	55.65	97.1393	5.6443	-13.468
3.453	55.74	97.1298	5.6437	-13.434
3.462	55.83	97.1203	5.6432	-13.400
3.470	55.92	97.1108	5.6426	-13.366
3.478	56.01	97.1014	5.6421	-13.331
3.487	56.10	97.0919	5.6415	-13.296
3.495	56.19	97.0824	5.6410	-13.261
3.503	56.27	97.0729	5.6404	-13.227
3.512	56.36	97.0635	5.6399	-13.193
3.520	56.45	97.0540	5.6393	-13.158
3.528	56.54	97.0446	5.6388	-13.125
3.537	56.63	97.0352	5.6382	-13.090
3.545	56.72	97.0258	5.6377	-13.055
3.553	56.81	97.0163	5.6371	-13.021
3.562	56.90	97.0069	5.6366	-12.987
3.570	56.99	96.9975	5.6360	-12.953
3.578	57.07	96.9881	5.6355	-12.920
3.587	57.16	96.9787	5.6350	-12.886
3.595	57.25	96.9692	5.6344	-12.851
3.603	57.34	96.9598	5.6339	-12.817
3.612	57.43	96.9505	5.6333	-12.783
3.620	57.52	96.9411	5.6328	-12.748
3.628	57.60	96.9317	5.6322	-12.714
3.637	57.69	96.9223	5.6317	-12.680
3.645	57.78	96.9129	5.6311	-12.645
3.653	57.87	96.9036	5.6306	-12.611
3.662	57.96	96.8942	5.6300	-12.577
3.670	58.05	96.8849	5.6295	-12.543
3.678	58.13	96.8755	5.6290	-12.507
3.687	58.22	96.8662	5.6284	-12.473
3.695	58.31	96.8568	5.6279	-12.439
3.703	58.40	96.8475	5.6273	-12.405
3.712	58.49	96.8382	5.6268	-12.370
3.720	58.58	96.8288	5.6262	-12.336
3.728	58.66	96.8195	5.6257	-12.302
3.737	58.75	96.8102	5.6252	-12.268
3.745	58.84	96.8009	5.6246	-12.233
3.753	58.93	96.7916	5.6241	-12.199
3.762	59.01	96.7824	5.6235	-12.165
3.770	59.10	96.7731	5.6230	-12.131
3.778	59.19	96.7638	5.6225	-12.096
3.787	59.28	96.7546	5.6219	-12.062
3.795	59.37	96.7453	5.6214	-12.027
3.803	59.45	96.7361	5.6209	-11.993
3.812	59.54	96.7268	5.6203	-11.958
3.820	59.63	96.7176	5.6198	-11.923
3.828	59.72	96.7084	5.6193	-11.889
3.837	59.80	96.6992	5.6187	-11.855
3.845	59.89	96.6900	5.6182	-11.820
3.853	59.98	96.6808	5.6177	-11.786
3.862	60.07	96.6717	5.6171	-11.751
3.870	60.15	96.6625	5.6166	-11.717
3.878	60.24	96.6534	5.6161	-11.683
3.887	60.33	96.6442	5.6155	-11.649
3.895	60.41	96.6351	5.6150	-11.614
3.903	60.50	96.6259	5.6145	-11.580
3.912	60.59	96.6168	5.6139	-11.546
3.920	60.68	96.6077	5.6134	-11.512
3.928	60.76	96.5986	5.6129	-11.478
3.937	60.85	96.5895	5.6123	-11.444
3.945	60.94	96.5804	5.6118	-11.410
3.953	61.03	96.5714	5.6113	-11.376
3.962	61.11	96.5623	5.6108	-11.341
3.970	61.20	96.5533	5.6102	-11.307
3.978	61.29	96.5442	5.6097	-11.273
3.987	61.37	96.5352	5.6092	-11.238
3.995	61.46	96.5262	5.6087	-11.203
4.003	61.55	96.5172	5.6081	-11.169
4.012	61.63	96.5083	5.6076	-11.134
4.020	61.72	96.4993	5.6071	-11.098
4.028	61.81	96.4904	5.6066	-11.063
4.037	61.89	96.4814	5.6061	-11.029
4.045	61.98	96.4725	5.6055	-10.994
4.053	62.07	96.4636	5.6050	-10.961
4.062	62.15	96.4548	5.6045	-10.926
4.070	62.24	96.4459	5.6040	-10.892
4.078	62.33	96.4370	5.6035	-10.858
4.087	62.41	96.4282	5.6030	-10.824
4.095	62.50	96.4194	5.6025	-10.790
4.103	62.59	96.4106	5.6019	-10.756
4.112	62.67	96.4018	5.6014	-10.721
4.120	62.76	96.3931	5.6009	-10.688
4.128	62.85	96.3843	5.6004	-10.654
4.137	62.93	96.3756	5.5999	-10.619
4.145	63.02	96.3668	5.5994	-10.585
4.153	63.11	96.3582	5.5989	-10.551
4.162	63.19	96.3495	5.5984	-10.517
4.170	63.28	96.3408	5.5979	-10.483
4.178	63.36	96.3321	5.5974	-10.449
4.187	63.45	96.3234	5.5969	-10.415
4.195	63.54	96.3148	5.5964	-10.382
4.203	63.62	96.3062	5.5959	-10.347
4.212	63.71	96.2975	5.5954	-10.313
4.220	63.80	96.2889	5.5949	-10.280
4.228	63.88	96.2804	5.5944	-10.247
4.237	63.97	96.2718	5.5939	-10.213
4.245	64.05	96.2632	5.5934	-10.179
4.253	64.14	96.2547	5.5929	-10.145
4.262	64.23	96.2462	5.5924	-10.112
4.270	64.31	96.2377	5.5919	-10.078
4.278	64.40	96.2292	5.5914	-10.045
4.287	64.48	96.2208	5.5909	-10.011
4.295	64.57	96.2124	5.5904	-9.977
4.303	64.66	96.2040	5.5899	-9.943
4.312	64.74	96.1956	5.5895	-9.909
4.320	64.83	96.1872	5.5890	-9.875
4.328	64.91	96.1788	5.5885	-9.841
4.337	65.00	96.1705	5.5880	-9.808
4.345	65.08	96.1622	5.5875	-9.774
4.353	65.17	96.1538	5.5870	-9.739
4.362	65.26	96.1455	5.5865	-9.705
4.370	65.34	96.1372	5.5861	-9.672
4.378	65.43	96.1290	5.5856	-9.639
4.387	65.51	96.1207	5.5851	-9.606
4.395	65.60	96.1125	5.5846	-9.572
4.403	65.68	96.1042	5.5841	-9.539
4.412	65.77	96.0960	5.5837	-9.505
4.420	65.86	96.0879	5.5832	-9.471
4.428	65.94	96.0797	5.5827	-9.437
4.437	66.03	96.0716	5.5822	-9.405
4.445	66.11	96.0635	5.5818	-9.371
4.453	66.20	96.0554	5.5813	-9.336
4.462	66.29	96.0473	5.5808	-9.302
4.470	66.37	96.0393	5.5804	-9.268
4.478	66.46	96.0312	5.5799	-9.235
4.487	66.54	96.0232	5.5794	-9.202
4.495	66.63	96.0152	5.5790	-9.169
4.503	66.71	96.0072	5.5785	-9.137
4.512	66.80	95.9993	5.5780	-9.104
4.520	66.88	95.9913	5.5776	-9.071
4.528	66.97	95.9834	5.5771	-9.038
4.537	67.05	95.9755	5.5767	-9.005
4.545	67.14	95.9676	5.5762	-8.973
4.553	67.23	95.9597	5.5757	-8.940
4.562	67.31	95.9518	5.5753	-8.908
4.570	67.40	95.9440	5.5748	-8.875
4.578	67.48	95.9362	5.5744	-8.842
4.587	67.57	95.9284	5.5739	-8.808
4.595	67.65	95.9206	5.5735	-8.774
4.603	67.74	95.9129	5.5730	-8.741
4.612	67.82	95.9051	5.5726	-8.709
4.620	67.91	95.8974	5.5721	-8.677
4.628	67.99	95.8897	5.5717	-8.644
4.637	68.08	95.8820	5.5712	-8.612
4.645	68.16	95.8744	5.5708	-8.579
4.653	68.25	95.8668	5.5703	-8.546
4.662	68.34	95.8592	5.5699	-8.513
4.670	68.42	95.8516	5.5695	-8.481
4.678	68.51	95.8440	5.5690	-8.448
4.687	68.59	95.8365	5.5686	-8.415
4.695	68.68	95.8290	5.5682	-8.382
4.703	68.76	95.8215	5.5677	-8.348
4.712	68.85	95.8140	5.5673	-8.314
4.720	68.94	95.8065	5.5668	-8.281
4.728	69.02	95.7990	5.5664	-8.248
4.737	69.11	95.7916	5.5660	-8.215
4.745	69.19	95.7842	5.5655	-8.182
4.753	69.28	95.7768	5.5651	-8.149
4.762	69.36	95.7694	5.5647	-8.116
4.770	69.45	95.7620	5.5643	-8.083
4.778	69.53	95.7547	5.5638	-8.050
4.787	69.62	95.7474	5.5634	-8.017
4.795	69.70	95.7401	5.5630	-7.984
4.803	69.79	95.7328	5.5626	-7.951
4.812	69.87	95.7255	5.5621	-7.918
4.820	69.96	95.7183	5.5617	-7.885
4.828	70.04	95.7111	5.5613	-7.853
4.837	70.13	95.7039	5.5609	-7.820
4.845	70.21	95.6968	5.5605	-7.788
4.853	70.30	95.6897	5.5601	-7.756
4.862	70.38	95.6826	5.5596	-7.724
4.870	70.47	95.6755	5.5592	-7.692
4.878	70.55	95.6684	5.5588	-7.660
4.887	70.64	95.6614	5.5584	-7.628
4.895	70.73	95.6544	5.5580	-7.596
4.903	70.81	95.6475	5.5576	-7.564
4.912	70.90	95.6405	5.5572	-7.532
4.920	70.98	95.6336	5.5568	-7.499
4.928	71.07	95.6266	5.5564	-7.466
4.937	71.15	95.6197	5.5560	-7.434
4.945	71.24	95.6128	5.5556	-7.401
4.953	71.32	95.6060	5.5552	-7.369
4.962	71.41	95.5991	5.5548	-7.337
4.970	71.49	95.5922	5.5544	-7.305
4.978	71.58	95.5854	5.5540	-7.273
4.987	71.66	95.5786	5.5536	-7.241
4.995	71.75	95.5718	5.5532	-7.210
5.003	71.83	95.5650	5.5528	-7.178
5.012	71.92	95.5583	5.5524	-7.145
5.020	72.00	95.5516	5.5520	-7.113
5.028	72.09	95.5449	5.5516	-7.082
5.037	72.18	95.5382	5.5513	-7.050
5.045	72.26	95.5315	5.5509	-7.018
5.053	72.35	95.5249	5.5505	-6.987
5.062	72.43	95.5183	5.5501	-6.955
5.070	72.52	95.5117	5.5497	-6.923
5.078	72.60	95.5052	5.5493	-6.892
5.087	72.69	95.4987	5.5490	-6.860
5.095	72.77	95.4922	5.5486	-6.829
5.103	72.86	95.4857	5.5482	-6.798
5.112	72.95	95.4792	5.5478	-6.767
5.120	73.03	95.4728	5.5475	-6.736
5.128	73.12	95.4663	5.5471	-6.705
5.137	73.20	95.4599	5.5467	-6.674
5.145	73.29	95.4536	5.5463	-6.643
5.153	73.37	95.4472	5.5460	-6.611
5.162	73.46	95.4408	5.5456	-6.580
5.170	73.54	95.4345	5.5452	-6.549
5.178	73.63	95.4282	5.5449	-6.518
5.187	73.71	95.4219	5.5445	-6.487
5.195	73.80	95.4157	5.5441	-6.455
5.203	73.88	95.4094	5.5438	-6.424
5.212	73.97	95.4032	5.5434	-6.392
5.220	74.06	95.3970	5.5431	-6.361
5.228	74.14	95.3909	5.5427	-6.329
5.237	74.23	95.3847	5.5423	-6.299
5.245	74.31	95.3786	5.5420	-6.268
5.253	74.40	95.3725	5.5416	-6.238
5.262	74.48	95.3665	5.5413	-6.207
5.270	74.57	95.3604	5.5409	-6.176
5.278	74.65	95.3544	5.5406	-6.146
5.287	74.74	95.3484	5.5402	-6.115
5.295	74.82	95.3425	5.5399	-6.085
5.303	74.91	95.3365	5.5395	-6.055
5.312	74.99	95.3306	5.5392	-6.025
5.320	75.08	95.3247	5.5389	-5.994
5.328	75.17	95.3188	5.5385	-5.963
5.337	75.25	95.3129	5.5382	-5.932
5.345	75.34	95.3071	5.5378	-5.901
5.353	75.42	95.3012	5.5375	-5.871
5.362	75.51	95.2954	5.5371	-5.839
5.370	75.60	95.2896	5.5368	-5.809
5.378	75.68	95.2838	5.5365	-5.777
5.387	75.77	95.2780	5.5361	-5.746
5.395	75.85	95.2723	5.5358	-5.715
5.403	75.94	95.2666	5.5355	-5.685
5.412	76.02	95.2609	5.5351	-5.655
5.420	76.11	95.2552	5.5348	-5.625
5.428	76.19	95.2495	5.5345	-5.594
5.437	76.28	95.2439	5.5342	-5.563
5.445	76.36	95.2383	5.5338	-5.533
5.453	76.45	95.2327	5.5335	-5.503
5.462	76.54	95.2271	5.5332	-5.472
5.470	76.62	95.2216	5.5329	-5.442
5.478	76.71	95.2160	5.5325	-5.412
5.487	76.79	95.2105	5.5322	-5.382
5.495	76.88	95.2050	5.5319	-5.352
5.503	76.97	95.1996	5.5316	-5.321
5.512	77.05	95.1941	5.5313	-5.291
5.520	77.14	95.1887	5.5309	-5.261
5.528	77.22	95.1832	5.5306	-5.232
5.537	77.31	95.1778	5.5303	-5.202
5.545	77.40	95.1725	5.5300	-5.173
5.553	77.48	95.1671	5.5297	-5.144
5.562	77.57	95.1618	5.5294	-5.115
5.570	77.65	95.1564	5.5291	-5.085
5.578	77.74	95.1511	5.5288	-5.056
5.587	77.82	95.1458	5.5285	-5.027
5.595	77.91	95.1406	5.5282	-4.998
5.603	78.00	95.1353	5.5278	-4.969
5.612	78.08	95.1301	5.5275	-4.940
5.620	78.17	95.1249	5.5272	-4.910
5.628	78.25	95.1197	5.5269	-4.881
5.637	78.34	95.1145	5.5266	-4.852
5.645	78.43	95.1093	5.5263	-4.822
5.653	78.51	95.1042	5.5260	-4.792
5.662	78.60	95.0991	5.5257	-4.762
5.670	78.68	95.0940	5.5254	-4.733
5.678	78.77	95.0890	5.5252	-4.703
5.687	78.86	95.0840	5.5249	-4.673
5.695	78.94	95.0789	5.5246	-4.643
5.703	79.03	95.0740	5.5243	-4.614
5.712	79.11	95.0690	5.5240	-4.584
5.720	79.20	95.0640	5.5237	-4.554
5.728	79.29	95.0591	5.5234	-4.524
5.737	79.37	95.0542	5.5231	-4.494
5.745	79.46	95.0493	5.5229	-4.464
5.753	79.54	95.0444	5.5226	-4.434
5.762	79.63	95.0396	5.5223	-4.404
5.770	79.72	95.0348	5.5220	-4.375
5.778	79.80	95.0299	5.5217	-4.346
5.787	79.89	95.0251	5.5214	-4.316
5.795	79.98	95.0203	5.5212	-4.287
5.803	80.06	95.0156	5.5209	-4.257
5.812	80.15	95.0108	5.5206	-4.229
5.820	80.23	95.0061	5.5203	-4.200
5.828	80.32	95.0014	5.5201	-4.170
5.837	80.41	94.9967	5.5198	-4.142
5.845	80.49	94.9920	5.5195	-4.112
5.853	80.58	94.9874	5.5193	-4.083
5.862	80.67	94.9828	5.5190	-4.053
5.870	80.75	94.9782	5.5187	-4.024
5.878	80.84	94.9736	5.5185	-3.995
5.887	80.93	94.9691	5.5182	-3.967
5.895	81.01	94.9645	5.5179	-3.938
5.903	81.10	94.9600	5.5177	-3.909
5.912	81.18	94.9555	5.5174	-3.880
5.920	81.27	94.9510	5.5171	-3.852
5.928	81.36	94.9465	5.5169	-3.824
5.937	81.44	94.9421	5.5166	-3.796
5.945	81.53	94.9377	5.5164	-3.768
5.953	81.62	94.9333	5.5161	-3.739
5.962	81.70	94.9289	5.5159	-3.711
5.970	81.79	94.9245	5.5156	-3.682
5.978	81.87	94.9201	5.5153	-3.653
5.987	81.96	94.9158	5.5151	-3.625
5.995	82.05	94.9115	5.5148	-3.596
6.003	82.13	94.9072	5.5146	-3.568
6.012	82.22	94.9029	5.5143	-3.540
6.020	82.31	94.8987	5.5141	-3.511
6.028	82.39	94.8944	5.5139	-3.483
6.037	82.48	94.8902	5.5136	-3.455
6.045	82.57	94.8860	5.5134	-3.427
6.053	82.65	94.8818	5.5131	-3.399
6.062	82.74	94.8777	5.5129	-3.371
6.070	82.83	94.8735	5.5126	-3.343
6.078	82.91	94.8694	5.5124	-3.315
6.087	83.00	94.8653	5.5122	-3.288
6.095	83.09	94.8612	5.5119	-3.260
6.103	83.17	94.8571	5.5117	-3.232
6.112	83.26	94.8531	5.5114	-3.204
6.120	83.35	94.8490	5.5112	-3.175
6.128	83.43	94.8450	5.5110	-3.148
6.137	83.52	94.8410	5.5107	-3.120
6.145	83.60	94.8370	5.5105	-3.092
6.153	83.69	94.8331	5.5103	-3.064
6.162	83.78	94.8291	5.5101	-3.035
6.170	83.86	94.8252	5.5098	-3.007
6.178	83.95	94.8213	5.5096	-2.979
6.187	84.04	94.8174	5.5094	-2.951
6.195	84.12	94.8136	5.5092	-2.924
6.203	84.21	94.8097	5.5089	-2.896
6.212	84.30	94.8059	5.5087	-2.868
6.220	84.38	94.8021	5.5085	-2.840
6.228	84.47	94.7983	5.5083	-2.813
6.237	84.56	94.7945	5.5080	-2.784
6.245	84.64	94.7907	5.5078	-2.757
6.253	84.73	94.7869	5.5076	-2.729
6.262	84.82	94.7832	5.5074	-2.702
6.270	84.90	94.7795	5.5072	-2.674
6.278	84.99	94.7757	5.5070	-2.646
6.287	85.08	94.7720	5.5067	-2.619
6.295	85.17	94.7683	5.5065	-2.591
6.303	85.25	94.7647	5.5063	-2.564
6.312	85.34	94.7610	5.5061	-2.537
6.320	85.42	94.7574	5.5059	-2.510
6.328	85.51	94.7538	5.5057	-2.484
6.337	85.60	94.7502	5.5055	-2.457
6.345	85.68	94.7466	5.5053	-2.430
6.353	85.77	94.7431	5.5051	-2.403
6.362	85.86	94.7395	5.5048	-2.376
6.370	85.94	94.7360	5.5046	-2.349
6.378	86.03	94.7325	5.5044	-2.322
6.387	86.12	94.7290	5.5042	-2.295
6.395	86.20	94.7256	5.5040	-2.268
6.403	86.29	94.7221	5.5038	-2.241
6.412	86.38	94.7187	5.5036	-2.214
6.420	86.46	94.7152	5.5034	-2.187
6.428	86.55	94.7118	5.5032	-2.159
6.437	86.64	94.7084	5.5030	-2.132
6.445	86.73	94.7050	5.5028	-2.105
6.453	86.81	94.7016	5.5026	-2.079
6.462	86.90	94.6983	5.5025	-2.053
6.470	86.99	94.6949	5.5023	-2.027
6.478	87.07	94.6916	5.5021	-2.000
6.487	87.16	94.6883	5.5019	-1.973
6.495	87.25	94.6851	5.5017	-1.947
6.503	87.33	94.6818	5.5015	-1.920
6.512	87.42	94.6785	5.5013	-1.892
6.520	87.51	94.6753	5.5011	-1.865
6.528	87.60	94.6721	5.5009	-1.839
6.537	87.68	94.6689	5.5007	-1.812
6.545	87.77	94.6657	5.5006	-1.785
6.553	87.86	94.6625	5.5004	-1.759
6.562	87.94	94.6593	5.5002	-1.733
6.570	88.03	94.6561	5.5000	-1.706
6.578	88.12	94.6530	5.4998	-1.680
6.587	88.20	94.6499	5.4996	-1.654
6.595	88.29	94.6468	5.4995	-1.629
6.603	88.38	94.6437	5.4993	-1.602
6.612	88.46	94.6406	5.4991	-1.576
6.620	88.55	94.6375	5.4989	-1.550
6.628	88.64	94.6345	5.4987	-1.523
6.637	88.72	94.6315	5.4986	-1.496
6.645	88.81	94.6285	5.4984	-1.469
6.653	88.90	94.6255	5.4982	-1.443
6.662	88.99	94.6225	5.4981	-1.416
6.670	89.07	94.6196	5.4979	-1.389
6.678	89.16	94.6166	5.4977	-1.363
6.687	89.25	94.6137	5.4975	-1.338
6.695	89.33	94.6109	5.4974	-1.311
6.703	89.42	94.6080	5.4972	-1.284
6.712	89.51	94.6051	5.4970	-1.258
6.720	89.59	94.6023	5.4969	-1.231
6.728	89.68	94.5994	5.4967	-1.206
6.737	89.77	94.5966	5.4965	-1.180
6.745	89.86	94.5938	5.4964	-1.154
6.753	89.94	94.5910	5.4962	-1.128
6.762	90.03	94.5882	5.4961	-1.103
6.770	90.12	94.5854	5.4959	-1.077
6.778	90.20	94.5826	5.4957	-1.053
6.787	90.29	94.5798	5.4956	-1.028
6.795	90.38	94.5771	5.4954	-1.003
6.803	90.46	94.5743	5.4953	-0.978
6.812	90.55	94.5716	5.4951	-0.953
6.820	90.64	94.5690	5.4949	-0.929
6.828	90.72	94.5663	5.4948	-0.904
6.837	90.81	94.5637	5.4946	-0.879
6.845	90.90	94.5610	5.4945	-0.853
6.853	90.99	94.5584	5.4943	-0.827
6.862	91.07	94.5558	5.4942	-0.801
6.870	91.16	94.5532	5.4940	-0.776
6.878	91.25	94.5507	5.4939	-0.750
6.887	91.33	94.5481	5.4937	-0.725
6.895	91.42	94.5455	5.4936	-0.699
6.903	91.51	94.5430	5.4934	-0.673
6.912	91.59	94.5404	5.4933	-0.648
6.920	91.68	94.5379	5.4931	-0.622
6.928	91.77	94.5354	5.4930	-0.597
6.937	91.85	94.5328	5.4928	-0.572
6.945	91.94	94.5303	5.4927	-0.546
6.953	92.03	94.5279	5.4926	-0.521
6.962	92.12	94.5254	5.4924	-0.495
6.970	92.20	94.5230	5.4923	-0.470
6.978	92.29	94.5205	5.4921	-0.445
6.987	92.38	94.5181	5.4920	-0.419
6.995	92.46	94.5157	5.4918	-0.394
7.003	92.55	94.5133	5.4917	-0.369
7.012	92.64	94.5109	5.4916	-0.344
7.020	92.72	94.5086	5.4914	-0.319
7.028	92.81	94.5062	5.4913	-0.294
7.037	92.90	94.5038	5.4912	-0.269
7.045	92.99	94.5015	5.4910	-0.244
7.053	93.07	94.4992	5.4909	-0.220
7.062	93.16	94.4969	5.4907	-0.196
7.070	93.25	94.4945	5.4906	-0.172
7.078	93.33	94.4923	5.4905	-0.147
7.087	93.42	94.4900	5.4904	-0.122
7.095	93.51	94.4877	5.4902	-0.097
7.103	93.59	94.4855	5.4901	-0.073
7.112	93.68	94.4833	5.4900	-0.048
7.120	93.77	94.4810	5.4898	-0.023
7.128	93.86	94.4789	5.4897	0.002
7.137	93.94	94.4767	5.4896	0.027
7.145	94.03	94.4745	5.4895	0.052
7.153	94.12	94.4723	5.4893	0.077
7.162	94.20	94.4702	5.4892	0.101
7.170	94.29	94.4681	5.4891	0.125
7.178	94.38	94.4659	5.4890	0.149
7.187	94.46	94.4638	5.4888	0.174
7.195	94.55	94.4617	5.4887	0.198
7.203	94.64	94.4596	5.4886	0.222
7.212	94.72	94.4575	5.4885	0.246
7.220	94.81	94.4555	5.4883	0.270
7.228	94.90	94.4534	5.4882	0.295
7.237	94.99	94.4514	5.4881	0.319
7.245	95.07	94.4494	5.4880	0.343
7.253	95.16	94.4474	5.4879	0.367
7.262	95.25	94.4454	5.4878	0.391
7.270	95.33	94.4434	5.4876	0.416
7.278	95.42	94.4415	5.4875	0.440
7.287	95.51	94.4395	5.4874	0.464
7.295	95.59	94.4376	5.4873	0.487
7.303	95.68	94.4357	5.4872	0.511
7.312	95.77	94.4338	5.4871	0.534
7.320	95.85	94.4319	5.4870	0.558
7.328	95.94	94.4300	5.4869	0.582
7.337	96.03	94.4281	5.4868	0.606
7.345	96.12	94.4262	5.4866	0.630
7.353	96.20	94.4243	5.4865	0.654
7.362	96.29	94.4225	5.4864	0.678
7.370	96.38	94.4207	5.4863	0.701
7.378	96.46	94.4188	5.4862	0.726
7.387	96.55	94.4170	5.4861	0.750
7.395	96.64	94.4152	5.4860	0.773
7.403	96.72	94.4134	5.4859	0.797
7.412	96.81	94.4116	5.4858	0.821
7.420	96.90	94.4098	5.4857	0.844
7.428	96.98	94.4081	5.4856	0.867
7.437	97.07	94.4063	5.4855	0.891
7.445	97.16	94.4046	5.4854	0.914
7.453	97.24	94.4028	5.4853	0.938
7.462	97.33	94.4011	5.4852	0.961
7.470	97.42	94.3994	5.4851	0.985
7.478	97.50	94.3977	5.4850	1.008
7.487	97.59	94.3960	5.4849	1.031
7.495	97.68	94.3943	5.4848	1.055
7.503	97.76	94.3926	5.4847	1.078
7.512	97.85	94.3909	5.4846	1.101
7.520	97.93	94.3893	5.4845	1.124
7.528	98.02	94.3876	5.4844	1.147
7.537	98.11	94.3859	5.4843	1.170
7.545	98.20	94.3842	5.4842	1.192
7.553	98.28	94.3826	5.4841	1.215
7.562	98.37	94.3810	5.4840	1.237
7.570	98.45	94.3793	5.4839	1.259
7.578	98.54	94.3777	5.4838	1.282
7.587	98.63	94.3761	5.4837	1.305
7.595	98.71	94.3745	5.4836	1.328
7.603	98.80	94.3729	5.4835	1.349
7.612	98.89	94.3713	5.4835	1.372
7.620	98.97	94.3698	5.4834	1.394
7.628	99.06	94.3683	5.4833	1.417
7.637	99.15	94.3667	5.4832	1.440
7.645	99.23	94.3652	5.4831	1.463
7.653	99.32	94.3637	5.4830	1.486
7.662	99.41	94.3623	5.4829	1.508
7.670	99.49	94.3608	5.4828	1.530
7.678	99.58	94.3593	5.4828	1.552
7.687	99.67	94.3579	5.4827	1.574
7.695	99.75	94.3564	5.4826	1.597
7.703	99.84	94.3549	5.4825	1.619
7.712	99.93	94.3535	5.4824	1.641
7.720	100.01	94.3521	5.4823	1.664
7.728	100.10	94.3506	5.4823	1.686
7.737	100.19	94.3492	5.4822	1.709
7.745	100.27	94.3478	5.4821	1.731
7.753	100.36	94.3464	5.4820	1.754
7.762	100.45	94.3450	5.4819	1.777
7.770	100.53	94.3437	5.4818	1.799
7.778	100.62	94.3423	5.4818	1.820
7.787	100.71	94.3409	5.4817	1.842
7.795	100.79	94.3396	5.4816	1.864
7.803	100.88	94.3382	5.4815	1.885
7.812	100.97	94.3369	5.4815	1.907
7.820	101.05	94.3356	5.4814	1.928
7.828	101.14	94.3343	5.4813	1.949
7.837	101.22	94.3329	5.4812	1.971
7.845	101.31	94.3316	5.4811	1.992
7.853	101.40	94.3303	5.4811	2.015
7.862	101.48	94.3290	5.4810	2.037
7.870	101.57	94.3277	5.4809	2.058
7.878	101.66	94.3265	5.4808	2.080
7.887	101.74	94.3252	5.4808	2.101
7.895	101.83	94.3239	5.4807	2.123
7.903	101.92	94.3226	5.4806	2.146
7.912	102.00	94.3214	5.4806	2.167
7.920	102.09	94.3202	5.4805	2.189
7.928	102.18	94.3189	5.4804	2.210
7.937	102.26	94.3177	5.4803	2.232
7.945	102.35	94.3165	5.4803	2.254
7.953	102.44	94.3153	5.4802	2.276
7.962	102.52	94.3140	5.4801	2.298
7.970	102.61	94.3128	5.4801	2.319
7.978	102.70	94.3117	5.4800	2.341
7.987	102.78	94.3105	5.4799	2.362
7.995	102.87	94.3093	5.4799	2.383
8.003	102.96	94.3082	5.4798	2.404
8.012	103.04	94.3070	5.4797	2.425
8.020	103.13	94.3059	5.4797	2.445
8.028	103.21	94.3048	5.4796	2.466
8.037	103.30	94.3036	5.4795	2.487
8.045	103.39	94.3025	5.4795	2.508
8.053	103.47	94.3014	5.4794	2.529
8.062	103.56	94.3003	5.4793	2.549
8.070	103.65	94.2992	5.4793	2.570
8.078	103.73	94.2981	5.4792	2.591
8.087	103.82	94.2970	5.4791	2.612
8.095	103.90	94.2959	5.4791	2.633
8.103	103.99	94.2949	5.4790	2.654
8.112	104.08	94.2938	5.4790	2.675
8.120	104.16	94.2927	5.4789	2.696
8.128	104.25	94.2917	5.4788	2.716
8.137	104.34	94.2906	5.4788	2.737
8.145	104.42	94.2896	5.4787	2.757
8.153	104.51	94.2885	5.4786	2.778
8.162	104.60	94.2875	5.4786	2.799
8.170	104.68	94.2864	5.4785	2.819
8.178	104.77	94.2854	5.4785	2.839
8.187	104.86	94.2844	5.4784	2.859
8.195	104.94	94.2833	5.4783	2.878
8.203	105.03	94.2823	5.4783	2.899
8.212	105.11	94.2813	5.4782	2.920
8.220	105.20	94.2803	5.4782	2.940
8.228	105.29	94.2793	5.4781	2.961
8.237	105.37	94.2783	5.4781	2.981
8.245	105.46	94.2773	5.4780	3.001
8.253	105.54	94.2763	5.4779	3.021
8.262	105.63	94.2753	5.4779	3.041
8.270	105.72	94.2743	5.4778	3.062
8.278	105.80	94.2734	5.4778	3.082
8.287	105.89	94.2724	5.4777	3.102
8.295	105.98	94.2714	5.4776	3.122
8.303	106.06	94.2704	5.4776	3.142

[step]
Isothermal 30.0 min
Time	Temperature	Weight	Weight	Heat Flow
min	°C	%	mg	mW
8.312	106.15	94.2694	5.4775	3.162
8.337	106.41	94.2666	5.4774	3.224
8.362	106.67	94.2639	5.4772	3.285
8.387	106.92	94.2612	5.4771	3.346
8.412	107.18	94.2586	5.4769	3.408
8.437	107.44	94.2560	5.4768	3.472
8.462	107.69	94.2535	5.4766	3.539
8.487	107.94	94.2511	5.4765	3.608
8.512	108.19	94.2486	5.4763	3.679
8.537	108.43	94.2462	5.4762	3.752
8.562	108.67	94.2438	5.4760	3.829
8.587	108.91	94.2415	5.4759	3.907
8.612	109.14	94.2391	5.4758	3.990
8.637	109.37	94.2369	5.4756	4.076
8.662	109.59	94.2346	5.4755	4.165
8.687	109.81	94.2324	5.4754	4.257
8.712	110.02	94.2302	5.4753	4.353
8.737	110.23	94.2280	5.4751	4.451
8.762	110.43	94.2258	5.4750	4.554
8.787	110.63	94.2237	5.4749	4.659
8.812	110.82	94.2216	5.4748	4.767
8.837	111.00	94.2196	5.4746	4.877
8.862	111.18	94.2175	5.4745	4.988
8.887	111.35	94.2156	5.4744	5.101
8.912	111.51	94.2136	5.4743	5.216
8.937	111.67	94.2117	5.4742	5.332
8.962	111.82	94.2098	5.4741	5.449
8.987	111.97	94.2079	5.4740	5.569
9.012	112.11	94.2060	5.4738	5.692
9.037	112.24	94.2042	5.4737	5.818
9.062	112.36	94.2025	5.4736	5.943
9.087	112.48	94.2008	5.4735	6.070
9.112	112.59	94.1992	5.4735	6.196
9.137	112.69	94.1975	5.4734	6.324
9.162	112.79	94.1958	5.4733	6.452
9.187	112.88	94.1942	5.4732	6.581
9.212	112.96	94.1926	5.4731	6.708
9.237	113.03	94.1910	5.4730	6.835
9.262	113.10	94.1894	5.4729	6.959
9.287	113.17	94.1879	5.4728	7.083
9.312	113.23	94.1863	5.4727	7.203
9.337	113.28	94.1848	5.4726	7.322
9.362	113.33	94.1831	5.4725	7.438
9.387	113.37	94.1816	5.4724	7.552
9.412	113.40	94.1801	5.4723	7.665
9.437	113.44	94.1786	5.4723	7.777
9.462	113.47	94.1772	5.4722	7.887
9.487	113.49	94.1758	5.4721	7.995
9.512	113.51	94.1744	5.4720	8.099
9.537	113.52	94.1731	5.4719	8.198
9.562	113.53	94.1718	5.4719	8.296
9.587	113.54	94.1705	5.4718	8.392
9.612	113.54	94.1693	5.4717	8.487
9.637	113.54	94.1681	5.4716	8.580
9.662	113.53	94.1669	5.4716	8.669
9.687	113.53	94.1657	5.4715	8.754
9.712	113.51	94.1645	5.4714	8.838
9.737	113.50	94.1633	5.4714	8.920
9.762	113.48	94.1621	5.4713	9.002
9.787	113.45	94.1609	5.4712	9.080
9.812	113.43	94.1598	5.4712	9.155
9.837	113.40	94.1586	5.4711	9.226
9.862	113.37	94.1574	5.4710	9.295
9.887	113.34	94.1563	5.4710	9.361
9.912	113.30	94.1551	5.4709	9.423
9.937	113.27	94.1540	5.4708	9.481
9.962	113.24	94.1530	5.4708	9.536
9.987	113.20	94.1520	5.4707	9.586
10.012	113.16	94.1511	5.4707	9.632
10.037	113.13	94.1502	5.4706	9.675
10.062	113.09	94.1493	5.4706	9.715
10.087	113.05	94.1485	5.4705	9.752
10.112	113.01	94.1476	5.4705	9.787
10.137	112.97	94.1469	5.4704	9.818
10.162	112.93	94.1461	5.4704	9.846
10.187	112.90	94.1454	5.4703	9.873
10.212	112.86	94.1447	5.4703	9.898
10.237	112.82	94.1441	5.4703	9.923
10.262	112.78	94.1435	5.4702	9.943
10.287	112.74	94.1430	5.4702	9.962
10.312	112.71	94.1425	5.4702	9.978
10.337	112.67	94.1420	5.4701	9.991
10.362	112.64	94.1415	5.4701	10.004
10.387	112.60	94.1410	5.4701	10.016
10.412	112.57	94.1405	5.4700	10.026
10.437	112.53	94.1401	5.4700	10.034
10.462	112.50	94.1396	5.4700	10.040
10.487	112.47	94.1391	5.4700	10.045
10.512	112.44	94.1387	5.4699	10.050
10.537	112.40	94.1383	5.4699	10.053
10.562	112.38	94.1378	5.4699	10.056
10.587	112.35	94.1374	5.4699	10.058
10.612	112.32	94.1370	5.4698	10.060
10.637	112.29	94.1366	5.4698	10.062
10.662	112.27	94.1362	5.4698	10.063
10.687	112.24	94.1359	5.4698	10.063
10.712	112.22	94.1355	5.4698	10.063
10.737	112.20	94.1352	5.4697	10.061
10.762	112.18	94.1349	5.4697	10.059
10.787	112.16	94.1347	5.4697	10.056
10.812	112.14	94.1345	5.4697	10.052
10.837	112.12	94.1344	5.4697	10.048
10.862	112.11	94.1342	5.4697	10.042
10.887	112.10	94.1339	5.4697	10.035
10.912	112.08	94.1336	5.4696	10.027
10.937	112.07	94.1333	5.4696	10.017
10.962	112.06	94.1330	5.4696	10.007
10.987	112.05	94.1328	5.4696	9.996
11.012	112.04	94.1325	5.4696	9.986
11.037	112.04	94.1321	5.4696	9.978
11.062	112.03	94.1318	5.4695	9.969
11.087	112.02	94.1316	5.4695	9.961
11.112	112.02	94.1314	5.4695	9.951
11.137	112.02	94.1313	5.4695	9.941
11.162	112.02	94.1312	5.4695	9.929
11.187	112.02	94.1310	5.4695	9.917
11.212	112.02	94.1309	5.4695	9.906
11.237	112.02	94.1307	5.4695	9.894
11.262	112.02	94.1305	5.4695	9.882
11.287	112.03	94.1303	5.4694	9.870
11.312	112.03	94.1301	5.4694	9.859
11.337	112.04	94.1300	5.4694	9.850
11.362	112.04	94.1298	5.4694	9.842
11.387	112.05	94.1297	5.4694	9.832
11.412	112.06	94.1295	5.4694	9.824
11.437	112.07	94.1294	5.4694	9.815
11.462	112.08	94.1294	5.4694	9.806
11.487	112.09	94.1292	5.4694	9.797
11.512	112.10	94.1291	5.4694	9.789
11.537	112.11	94.1289	5.4694	9.783
11.562	112.12	94.1287	5.4694	9.777
11.587	112.14	94.1285	5.4693	9.771
11.612	112.15	94.1283	5.4693	9.765
11.637	112.16	94.1282	5.4693	9.758
11.662	112.18	94.1281	5.4693	9.752
11.687	112.19	94.1280	5.4693	9.746
11.712	112.21	94.1279	5.4693	9.741
11.737	112.23	94.1277	5.4693	9.735
11.762	112.24	94.1275	5.4693	9.729
11.787	112.26	94.1273	5.4693	9.724
11.812	112.28	94.1272	5.4693	9.720
11.837	112.29	94.1271	5.4693	9.717
11.862	112.31	94.1269	5.4693	9.715
11.887	112.33	94.1267	5.4692	9.712
11.912	112.35	94.1265	5.4692	9.709
11.937	112.37	94.1264	5.4692	9.705
11.962	112.39	94.1262	5.4692	9.702
11.987	112.40	94.1261	5.4692	9.699
12.012	112.42	94.1260	5.4692	9.697
12.037	112.44	94.1260	5.4692	9.695
12.062	112.46	94.1258	5.4692	9.694
12.087	112.48	94.1257	5.4692	9.693
12.112	112.50	94.1256	5.4692	9.692
12.137	112.52	94.1255	5.4692	9.691
12.162	112.54	94.1254	5.4692	9.691
12.187	112.55	94.1253	5.4692	9.690
12.212	112.57	94.1252	5.4692	9.690
12.237	112.59	94.1250	5.4691	9.690
[...]
169.170	949.16	-0.4762	-0.0277	13.004
169.195	949.16	-0.4763	-0.0277	13.012
169.220	949.16	-0.4764	-0.0277	13.019
169.245	949.16	-0.4765	-0.0277	13.026
169.270	949.16	-0.4767	-0.0277	13.033
169.295	949.16	-0.4768	-0.0277	13.040
169.320	949.16	-0.4769	-0.0277	13.048
169.345	949.16	-0.4769	-0.0277	13.055
169.370	949.16	-0.4769	-0.0277	13.062
169.395	949.16	-0.4769	-0.0277	13.067
169.420	949.16	-0.4770	-0.0277	13.073
169.445	949.16	-0.4772	-0.0277	13.078
169.470	949.16	-0.4774	-0.0277	13.082
169.495	949.16	-0.4775	-0.0277	13.086
169.520	949.16	-0.4775	-0.0277	13.089
169.545	949.16	-0.4775	-0.0277	13.092
169.570	949.16	-0.4776	-0.0277	13.093
169.595	949.16	-0.4777	-0.0278	13.094
169.620	949.16	-0.4778	-0.0278	13.096
169.645	949.16	-0.4779	-0.0278	13.098
169.670	949.16	-0.4781	-0.0278	13.099
169.695	949.16	-0.4782	-0.0278	13.101
169.720	949.16	-0.4782	-0.0278	13.106
169.745	949.16	-0.4783	-0.0278	13.111
169.770	949.17	-0.4783	-0.0278	13.115
169.795	949.16	-0.4784	-0.0278	13.119
169.820	949.16	-0.4785	-0.0278	13.122
169.845	949.17	-0.4786	-0.0278	13.125
169.870	949.17	-0.4787	-0.0278	13.129
169.895	949.17	-0.4789	-0.0278	13.132
169.920	949.17	-0.4790	-0.0278	13.136
169.945	949.17	-0.4791	-0.0278	13.141
169.970	949.17	-0.4792	-0.0278	13.147
169.995	949.17	-0.4792	-0.0278	13.153
170.020	949.17	-0.4793	-0.0279	13.158
170.045	949.16	-0.4794	-0.0279	13.165
170.070	949.16	-0.4795	-0.0279	13.171
170.095	949.17	-0.4796	-0.0279	13.179
170.120	949.17	-0.4797	-0.0279	13.186
170.145	949.17	-0.4798	-0.0279	13.193
170.170	949.17	-0.4798	-0.0279	13.199
170.195	949.17	-0.4799	-0.0279	13.204
170.220	949.17	-0.4800	-0.0279	13.210
170.245	949.17	-0.4800	-0.0279	13.217
170.270	949.17	-0.4800	-0.0279	13.223
170.295	949.17	-0.4801	-0.0279	13.229
170.320	949.17	-0.4801	-0.0279	13.235
170.345	949.17	-0.4801	-0.0279	13.241
170.370	949.17	-0.4802	-0.0279	13.248
170.395	949.17	-0.4802	-0.0279	13.254
170.420	949.17	-0.4803	-0.0279	13.262
170.445	949.17	-0.4803	-0.0279	13.268
170.470	949.17	-0.4804	-0.0279	13.275
170.495	949.17	-0.4805	-0.0279	13.280
170.520	949.17	-0.4806	-0.0279	13.284
170.545	949.17	-0.4807	-0.0279	13.288
170.570	949.17	-0.4808	-0.0279	13.292
170.595	949.17	-0.4809	-0.0279	13.299
170.620	949.17	-0.4811	-0.0280	13.303
170.645	949.17	-0.4813	-0.0280	13.306
170.670	949.17	-0.4814	-0.0280	13.309
170.695	949.17	-0.4816	-0.0280	13.312
170.720	949.17	-0.4817	-0.0280	13.315
170.745	949.17	-0.4818	-0.0280	13.318
170.770	949.17	-0.4819	-0.0280	13.321
170.795	949.17	-0.4820	-0.0280	13.324
170.820	949.17	-0.4820	-0.0280	13.327
170.845	949.17	-0.4821	-0.0280	13.329
170.870	949.17	-0.4821	-0.0280	13.332
170.895	949.17	-0.4822	-0.0280	13.338
170.920	949.17	-0.4823	-0.0280	13.344
170.945	949.17	-0.4824	-0.0280	13.350
170.970	949.17	-0.4826	-0.0280	13.354
170.995	949.17	-0.4827	-0.0280	13.357
171.020	949.17	-0.4829	-0.0281	13.360
171.045	949.17	-0.4830	-0.0281	13.363
171.070	949.17	-0.4830	-0.0281	13.368
171.095	949.17	-0.4830	-0.0281	13.373
171.120	949.17	-0.4831	-0.0281	13.376
171.145	949.17	-0.4831	-0.0281	13.379
171.170	949.17	-0.4832	-0.0281	13.383
171.195	949.17	-0.4832	-0.0281	13.389
171.220	949.17	-0.4833	-0.0281	13.394
171.245	949.17	-0.4833	-0.0281	13.399
171.270	949.17	-0.4832	-0.0281	13.403
171.295	949.17	-0.4833	-0.0281	13.408
171.320	949.17	-0.4834	-0.0281	13.413
171.345	949.17	-0.4835	-0.0281	13.418
171.370	949.17	-0.4837	-0.0281	13.423
171.395	949.17	-0.4838	-0.0281	13.427
171.420	949.17	-0.4840	-0.0281	13.431
171.445	949.17	-0.4841	-0.0281	13.434
171.470	949.17	-0.4841	-0.0281	13.437
171.495	949.17	-0.4842	-0.0281	13.440
171.520	949.17	-0.4843	-0.0281	13.443
171.545	949.17	-0.4845	-0.0281	13.446
171.570	949.17	-0.4846	-0.0282	13.450
171.595	949.17	-0.4847	-0.0282	13.454
171.620	949.17	-0.4849	-0.0282	13.457
171.645	949.17	-0.4849	-0.0282	13.461
171.670	949.17	-0.4850	-0.0282	13.464
171.695	949.17	-0.4851	-0.0282	13.468
171.720	949.17	-0.4852	-0.0282	13.474
171.745	949.17	-0.4853	-0.0282	13.479
171.770	949.17	-0.4854	-0.0282	13.485
171.795	949.17	-0.4854	-0.0282	13.491
171.820	949.17	-0.4854	-0.0282	13.496
171.845	949.17	-0.4854	-0.0282	13.501
171.870	949.17	-0.4855	-0.0282	13.505
171.895	949.17	-0.4855	-0.0282	13.509
171.920	949.17	-0.4856	-0.0282	13.515
171.945	949.17	-0.4857	-0.0282	13.522
171.970	949.17	-0.4858	-0.0282	13.528
171.995	949.17	-0.4860	-0.0282	13.534
172.020	949.17	-0.4862	-0.0282	13.541
172.045	949.17	-0.4863	-0.0283	13.549
172.070	949.17	-0.4864	-0.0283	13.557
172.095	949.17	-0.4864	-0.0283	13.562
172.120	949.17	-0.4865	-0.0283	13.566
172.145	949.17	-0.4865	-0.0283	13.571
172.170	949.17	-0.4865	-0.0283	13.575
172.195	949.17	-0.4866	-0.0283	13.581
172.220	949.17	-0.4867	-0.0283	13.586
172.245	949.17	-0.4868	-0.0283	13.590
172.270	949.17	-0.4869	-0.0283	13.594
172.295	949.17	-0.4870	-0.0283	13.598
172.320	949.17	-0.4871	-0.0283	13.603
172.345	949.17	-0.4872	-0.0283	13.608
172.370	949.17	-0.4873	-0.0283	13.615
172.395	949.17	-0.4874	-0.0283	13.622
172.420	949.17	-0.4874	-0.0283	13.626
172.445	949.17	-0.4875	-0.0283	13.629
172.470	949.17	-0.4875	-0.0283	13.632
172.495	949.17	-0.4876	-0.0283	13.634
172.520	949.17	-0.4877	-0.0283	13.637
172.545	949.17	-0.4877	-0.0283	13.641
172.570	949.17	-0.4879	-0.0283	13.644
172.595	949.17	-0.4880	-0.0284	13.648
172.620	949.18	-0.4881	-0.0284	13.651
172.645	949.18	-0.4883	-0.0284	13.653
172.670	949.18	-0.4884	-0.0284	13.657
172.695	949.18	-0.4886	-0.0284	13.661
172.720	949.18	-0.4887	-0.0284	13.665
172.745	949.18	-0.4888	-0.0284	13.670
172.770	949.18	-0.4889	-0.0284	13.674
172.795	949.18	-0.4890	-0.0284	13.679
172.820	949.18	-0.4891	-0.0284	13.683
172.845	949.18	-0.4893	-0.0284	13.688
172.870	949.18	-0.4894	-0.0284	13.694
172.895	949.18	-0.4894	-0.0284	13.700
172.920	949.18	-0.4895	-0.0284	13.706
172.945	949.18	-0.4895	-0.0284	13.713
172.970	949.18	-0.4896	-0.0284	13.718
172.995	949.18	-0.4897	-0.0285	13.723
173.020	949.18	-0.4898	-0.0285	13.727
173.045	949.18	-0.4899	-0.0285	13.732
173.070	949.18	-0.4901	-0.0285	13.736
173.095	949.18	-0.4903	-0.0285	13.741
173.120	949.18	-0.4905	-0.0285	13.746
173.145	949.18	-0.4907	-0.0285	13.751
173.170	949.18	-0.4908	-0.0285	13.754
173.195	949.18	-0.4909	-0.0285	13.758
173.220	949.18	-0.4909	-0.0285	13.761
173.245	949.18	-0.4909	-0.0285	13.764
173.270	949.18	-0.4910	-0.0285	13.767
173.295	949.18	-0.4911	-0.0285	13.771
173.320	949.18	-0.4912	-0.0285	13.775
173.345	949.18	-0.4914	-0.0286	13.779
173.370	949.18	-0.4915	-0.0286	13.784
173.395	949.18	-0.4915	-0.0286	13.789
173.420	949.18	-0.4916	-0.0286	13.795
173.445	949.18	-0.4916	-0.0286	13.800
173.470	949.18	-0.4917	-0.0286	13.805
173.495	949.18	-0.4919	-0.0286	13.808
173.520	949.18	-0.4920	-0.0286	13.811
173.545	949.18	-0.4921	-0.0286	13.815
173.570	949.18	-0.4922	-0.0286	13.817
173.595	949.18	-0.4923	-0.0286	13.820
173.620	949.18	-0.4924	-0.0286	13.824
173.645	949.18	-0.4926	-0.0286	13.826
173.670	949.18	-0.4927	-0.0286	13.828
173.695	949.18	-0.4928	-0.0286	13.829
173.720	949.18	-0.4928	-0.0286	13.829
173.745	949.18	-0.4927	-0.0286	13.830
173.770	949.18	-0.4927	-0.0286	13.831
173.795	949.18	-0.4928	-0.0286	13.833
173.820	949.18	-0.4929	-0.0286	13.835
173.845	949.18	-0.4929	-0.0286	13.843
173.870	949.18	-0.4930	-0.0286	13.853
173.895	949.18	-0.4930	-0.0286	13.863
173.920	949.18	-0.4931	-0.0287	13.870
173.945	949.18	-0.4932	-0.0287	13.875
173.970	949.18	-0.4934	-0.0287	13.881
173.995	949.18	-0.4935	-0.0287	13.886
174.020	949.18	-0.4936	-0.0287	13.892
174.045	949.18	-0.4936	-0.0287	13.897
174.070	949.18	-0.4937	-0.0287	13.902
174.095	949.18	-0.4938	-0.0287	13.905
174.120	949.18	-0.4939	-0.0287	13.909
174.145	949.18	-0.4940	-0.0287	13.913
174.170	949.18	-0.4941	-0.0287	13.917
174.195	949.18	-0.4942	-0.0287	13.922
174.220	949.18	-0.4943	-0.0287	13.926
174.245	949.18	-0.4943	-0.0287	13.930
174.270	949.18	-0.4944	-0.0287	13.934
174.295	949.18	-0.4946	-0.0287	13.940
174.320	949.18	-0.4948	-0.0287	13.946
174.345	949.18	-0.4950	-0.0288	13.952
174.370	949.18	-0.4951	-0.0288	13.958
174.395	949.18	-0.4951	-0.0288	13.965
174.420	949.18	-0.4950	-0.0288	13.973
174.445	949.18	-0.4950	-0.0288	13.983
174.470	949.18	-0.4950	-0.0288	13.993
174.495	949.18	-0.4951	-0.0288	14.004
174.520	949.18	-0.4952	-0.0288	14.013
174.545	949.18	-0.4953	-0.0288	14.022
174.570	949.18	-0.4954	-0.0288	14.029
174.595	949.18	-0.4954	-0.0288	14.036
174.620	949.18	-0.4955	-0.0288	14.045
174.645	949.18	-0.4956	-0.0288	14.053
174.670	949.18	-0.4957	-0.0288	14.061
174.695	949.18	-0.4959	-0.0288	14.069
174.720	949.18	-0.4960	-0.0288	14.077
174.745	949.18	-0.4961	-0.0288	14.086
174.770	949.18	-0.4963	-0.0288	14.093
174.795	949.19	-0.4964	-0.0288	14.100
174.820	949.19	-0.4965	-0.0289	14.104
174.845	949.19	-0.4966	-0.0289	14.108
174.870	949.19	-0.4967	-0.0289	14.110
174.895	949.19	-0.4967	-0.0289	14.114
174.920	949.19	-0.4967	-0.0289	14.117
174.945	949.19	-0.4968	-0.0289	14.122
174.970	949.19	-0.4968	-0.0289	14.127
174.995	949.19	-0.4969	-0.0289	14.133
175.020	949.19	-0.4970	-0.0289	14.139
175.045	949.19	-0.4971	-0.0289	14.146
175.070	949.19	-0.4972	-0.0289	14.154
175.095	949.19	-0.4973	-0.0289	14.161
175.120	949.19	-0.4974	-0.0289	14.169
175.145	949.19	-0.4974	-0.0289	14.176
175.170	949.19	-0.4975	-0.0289	14.182
175.195	949.19	-0.4976	-0.0289	14.187
175.220	949.19	-0.4977	-0.0289	14.193
175.245	949.19	-0.4978	-0.0289	14.199
175.270	949.19	-0.4979	-0.0289	14.204
175.295	949.19	-0.4979	-0.0289	14.208
175.320	949.19	-0.4980	-0.0289	14.211
175.345	949.19	-0.4980	-0.0289	14.212
175.370	949.19	-0.4980	-0.0289	14.214
175.395	949.19	-0.4980	-0.0289	14.216
175.420	949.19	-0.4981	-0.0289	14.218
175.445	949.19	-0.4982	-0.0290	14.222
175.470	949.19	-0.4984	-0.0290	14.226
175.495	949.19	-0.4986	-0.0290	14.230
175.520	949.19	-0.4986	-0.0290	14.233
175.545	949.19	-0.4987	-0.0290	14.237
175.570	949.19	-0.4987	-0.0290	14.242
175.595	949.19	-0.4988	-0.0290	14.247
175.620	949.19	-0.4989	-0.0290	14.253
175.645	949.19	-0.4989	-0.0290	14.259
175.670	949.19	-0.4989	-0.0290	14.264
175.695	949.19	-0.4989	-0.0290	14.268
175.720	949.19	-0.4989	-0.0290	14.271
175.745	949.19	-0.4990	-0.0290	14.276
175.770	949.19	-0.4991	-0.0290	14.283
175.795	949.19	-0.4992	-0.0290	14.292
175.820	949.19	-0.4994	-0.0290	14.300
175.845	949.19	-0.4996	-0.0290	14.305
175.870	949.19	-0.4997	-0.0290	14.311
175.895	949.19	-0.4998	-0.0290	14.318
175.920	949.19	-0.4999	-0.0290	14.325
175.945	949.19	-0.5000	-0.0291	14.330
175.970	949.19	-0.5001	-0.0291	14.336
175.995	949.19	-0.5002	-0.0291	14.343
176.020	949.19	-0.5002	-0.0291	14.350
176.045	949.19	-0.5003	-0.0291	14.357
176.070	949.19	-0.5004	-0.0291	14.362
176.095	949.19	-0.5004	-0.0291	14.367
176.120	949.19	-0.5005	-0.0291	14.372
176.145	949.19	-0.5006	-0.0291	14.376
176.170	949.19	-0.5007	-0.0291	14.380
176.195	949.19	-0.5007	-0.0291	14.384
176.220	949.19	-0.5008	-0.0291	14.388
176.245	949.19	-0.5008	-0.0291	14.393
176.270	949.19	-0.5009	-0.0291	14.399
176.295	949.19	-0.5010	-0.0291	14.405
176.320	949.19	-0.5011	-0.0291	14.412
176.345	949.19	-0.5012	-0.0291	14.419
176.370	949.19	-0.5014	-0.0291	14.426
176.395	949.19	-0.5015	-0.0291	14.432
176.420	949.19	-0.5016	-0.0291	14.438
176.445	949.19	-0.5017	-0.0292	14.444
176.470	949.19	-0.5018	-0.0292	14.451
176.495	949.19	-0.5019	-0.0292	14.460
176.520	949.19	-0.5020	-0.0292	14.468
176.545	949.19	-0.5022	-0.0292	14.475
176.570	949.19	-0.5023	-0.0292	14.481
176.595	949.19	-0.5025	-0.0292	14.488
176.620	949.19	-0.5026	-0.0292	14.496
176.645	949.19	-0.5027	-0.0292	14.502
176.670	949.19	-0.5029	-0.0292	14.508
176.695	949.19	-0.5030	-0.0292	14.512
176.720	949.19	-0.5031	-0.0292	14.515
176.745	949.19	-0.5031	-0.0292	14.517
176.770	949.19	-0.5032	-0.0292	14.519
176.795	949.19	-0.5032	-0.0292	14.522
176.820	949.19	-0.5033	-0.0292	14.525
176.845	949.19	-0.5034	-0.0292	14.530
176.870	949.19	-0.5035	-0.0293	14.534
176.895	949.19	-0.5036	-0.0293	14.539
176.920	949.19	-0.5037	-0.0293	14.543
176.945	949.20	-0.5039	-0.0293	14.548
176.970	949.20	-0.5041	-0.0293	14.553
176.995	949.20	-0.5042	-0.0293	14.558
177.020	949.20	-0.5042	-0.0293	14.563
177.045	949.20	-0.5043	-0.0293	14.567
177.070	949.20	-0.5043	-0.0293	14.568
177.095	949.20	-0.5044	-0.0293	14.570
177.120	949.20	-0.5044	-0.0293	14.571
177.145	949.20	-0.5045	-0.0293	14.573
177.170	949.20	-0.5046	-0.0293	14.576
177.195	949.20	-0.5047	-0.0293	14.578
177.220	949.20	-0.5048	-0.0293	14.579
177.245	949.20	-0.5049	-0.0293	14.579
177.270	949.20	-0.5050	-0.0293	14.579
177.295	949.20	-0.5050	-0.0293	14.580
177.320	949.20	-0.5050	-0.0293	14.579
177.345	949.20	-0.5051	-0.0293	14.579
177.370	949.20	-0.5051	-0.0294	14.578
177.395	949.20	-0.5052	-0.0294	14.578
177.420	949.20	-0.5051	-0.0294	14.578
177.445	949.20	-0.5051	-0.0294	14.579
177.470	949.20	-0.5052	-0.0294	14.581
177.495	949.20	-0.5052	-0.0294	14.581
177.520	949.20	-0.5051	-0.0294	14.581
177.545	949.20	-0.5052	-0.0294	14.582
177.570	949.20	-0.5052	-0.0294	14.584
177.595	949.20	-0.5053	-0.0294	14.587
177.620	949.20	-0.5053	-0.0294	14.591
177.645	949.20	-0.5053	-0.0294	14.596
177.670	949.20	-0.5054	-0.0294	14.600
177.695	949.20	-0.5055	-0.0294	14.604
177.720	949.20	-0.5056	-0.0294	14.607
177.745	949.20	-0.5056	-0.0294	14.611
177.770	949.20	-0.5057	-0.0294	14.617
177.795	949.20	-0.5059	-0.0294	14.624
177.820	949.20	-0.5060	-0.0294	14.632
177.845	949.20	-0.5062	-0.0294	14.641
177.870	949.20	-0.5063	-0.0294	14.650
177.895	949.20	-0.5063	-0.0294	14.660
177.920	949.20	-0.5064	-0.0294	14.671
177.945	949.20	-0.5065	-0.0294	14.683
177.970	949.20	-0.5066	-0.0294	14.693
177.995	949.20	-0.5067	-0.0294	14.701
178.020	949.20	-0.5068	-0.0294	14.707
178.045	949.20	-0.5069	-0.0295	14.713
178.070	949.20	-0.5069	-0.0295	14.719
178.095	949.20	-0.5069	-0.0295	14.724
178.120	949.20	-0.5069	-0.0295	14.728
178.145	949.20	-0.5069	-0.0295	14.731
178.170	949.20	-0.5069	-0.0295	14.734
178.195	949.20	-0.5069	-0.0295	14.738
178.220	949.20	-0.5069	-0.0295	14.742
178.245	949.20	-0.5070	-0.0295	14.745
178.270	949.20	-0.5071	-0.0295	14.747
178.295	949.20	-0.5071	-0.0295	14.749
178.320	949.20	-0.5072	-0.0295	14.750
178.345	949.20	-0.5072	-0.0295	14.753
178.370	949.20	-0.5072	-0.0295	14.755
178.395	949.20	-0.5072	-0.0295	14.760
178.420	949.20	-0.5073	-0.0295	14.766
178.445	949.20	-0.5074	-0.0295	14.772
178.470	949.20	-0.5075	-0.0295	14.778
178.495	949.20	-0.5076	-0.0295	14.784
178.520	949.20	-0.5076	-0.0295	14.790
178.545	949.20	-0.5077	-0.0295	14.796
178.570	949.20	-0.5077	-0.0295	14.802
178.595	949.20	-0.5077	-0.0295	14.807
178.620	949.20	-0.5077	-0.0295	14.812
178.645	949.20	-0.5078	-0.0295	14.817
178.670	949.20	-0.5078	-0.0295	14.822
178.695	949.20	-0.5079	-0.0295	14.828
178.720	949.20	-0.5080	-0.0295	14.833
178.745	949.20	-0.5082	-0.0295	14.838
178.770	949.20	-0.5084	-0.0295	14.842
178.795	949.20	-0.5085	-0.0295	14.845
178.820	949.20	-0.5087	-0.0296	14.849
178.845	949.20	-0.5088	-0.0296	14.854
178.870	949.20	-0.5089	-0.0296	14.857
178.895	949.20	-0.5090	-0.0296	14.860
178.920	949.20	-0.5090	-0.0296	14.863
178.945	949.20	-0.5090	-0.0296	14.867
178.970	949.20	-0.5091	-0.0296	14.873
178.995	949.20	-0.5092	-0.0296	14.877
179.020	949.20	-0.5094	-0.0296	14.881
179.045	949.20	-0.5095	-0.0296	14.884
179.070	949.20	-0.5096	-0.0296	14.888
179.095	949.20	-0.5098	-0.0296	14.893
179.120	949.20	-0.5099	-0.0296	14.898
179.145	949.20	-0.5100	-0.0296	14.903
179.170	949.20	-0.5100	-0.0296	14.908
179.195	949.20	-0.5101	-0.0296	14.912
179.220	949.20	-0.5102	-0.0296	14.915
179.245	949.20	-0.5103	-0.0297	14.917
179.270	949.20	-0.5104	-0.0297	14.920
179.295	949.20	-0.5105	-0.0297	14.919
179.320	949.20	-0.5106	-0.0297	14.917
179.345	949.20	-0.5107	-0.0297	14.914
179.370	949.20	-0.5108	-0.0297	14.912
179.395	949.20	-0.5109	-0.0297	14.911
179.420	949.20	-0.5110	-0.0297	14.911
179.445	949.20	-0.5111	-0.0297	14.912
179.470	949.20	-0.5112	-0.0297	14.912
179.495	949.20	-0.5113	-0.0297	14.914
179.520	949.20	-0.5115	-0.0297	14.917
179.545	949.20	-0.5116	-0.0297	14.920
179.570	949.20	-0.5117	-0.0297	14.922
179.595	949.20	-0.5118	-0.0297	14.925
179.620	949.20	-0.5119	-0.0297	14.928
179.645	949.20	-0.5121	-0.0298	14.932
179.670	949.20	-0.5122	-0.0298	14.936
179.695	949.20	-0.5122	-0.0298	14.942
179.720	949.20	-0.5123	-0.0298	14.950
179.745	949.20	-0.5123	-0.0298	14.958
179.770	949.20	-0.5124	-0.0298	14.964
179.795	949.20	-0.5125	-0.0298	14.968
179.820	949.20	-0.5125	-0.0298	14.972
179.845	949.20	-0.5126	-0.0298	14.976
179.870	949.20	-0.5126	-0.0298	14.981
179.895	949.20	-0.5125	-0.0298	14.986
179.920	949.20	-0.5125	-0.0298	14.990
179.945	949.21	-0.5125	-0.0298	14.994
179.970	949.21	-0.5125	-0.0298	14.997
179.995	949.21	-0.5126	-0.0298	14.999
180.020	949.21	-0.5127	-0.0298	15.001
180.045	949.21	-0.5128	-0.0298	15.002
180.070	949.21	-0.5128	-0.0298	15.004
180.095	949.21	-0.5128	-0.0298	15.007
180.120	949.21	-0.5128	-0.0298	15.010
180.145	949.21	-0.5128	-0.0298	15.014
180.170	949.21	-0.5128	-0.0298	15.017
180.195	949.21	-0.5128	-0.0298	15.019
180.220	949.21	-0.5129	-0.0298	15.022
180.245	949.21	-0.5130	-0.0298	15.027
180.270	949.21	-0.5130	-0.0298	15.032
180.295	949.21	-0.5131	-0.0298	15.037
180.320	949.21	-0.5132	-0.0298	15.039
180.345	949.21	-0.5132	-0.0298	15.042
180.370	949.21	-0.5133	-0.0298	15.043
180.395	949.21	-0.5134	-0.0298	15.043
180.420	949.21	-0.5135	-0.0298	15.041
180.445	949.21	-0.5136	-0.0298	15.039
180.470	949.21	-0.5137	-0.0298	15.038
180.495	949.21	-0.5138	-0.0299	15.038
180.520	949.21	-0.5140	-0.0299	15.039
180.545	949.21	-0.5141	-0.0299	15.039
180.570	949.21	-0.5142	-0.0299	15.041
180.595	949.21	-0.5142	-0.0299	15.044
180.620	949.21	-0.5143	-0.0299	15.051
180.645	949.21	-0.5144	-0.0299	15.059
180.670	949.21	-0.5145	-0.0299	15.070
180.695	949.21	-0.5146	-0.0299	15.080
180.720	949.21	-0.5147	-0.0299	15.087
180.745	949.21	-0.5148	-0.0299	15.092
180.770	949.21	-0.5150	-0.0299	15.097
180.795	949.21	-0.5152	-0.0299	15.101
180.820	949.21	-0.5153	-0.0299	15.105
180.845	949.21	-0.5154	-0.0299	15.109
180.870	949.21	-0.5155	-0.0300	15.112
180.895	949.21	-0.5155	-0.0300	15.117
180.920	949.21	-0.5156	-0.0300	15.122
180.945	949.21	-0.5157	-0.0300	15.128
180.970	949.21	-0.5158	-0.0300	15.133
180.995	949.21	-0.5159	-0.0300	15.137
181.020	949.21	-0.5160	-0.0300	15.142
181.045	949.21	-0.5161	-0.0300	15.148
181.070	949.21	-0.5162	-0.0300	15.152
181.095	949.21	-0.5163	-0.0300	15.156
181.120	949.21	-0.5163	-0.0300	15.160
181.145	949.21	-0.5163	-0.0300	15.166
181.170	949.21	-0.5162	-0.0300	15.171
181.195	949.21	-0.5163	-0.0300	15.176
181.220	949.21	-0.5163	-0.0300	15.178
181.245	949.21	-0.5163	-0.0300	15.179
181.270	949.21	-0.5163	-0.0300	15.180
181.295	949.21	-0.5163	-0.0300	15.181
181.320	949.21	-0.5163	-0.0300	15.183
181.345	949.21	-0.5164	-0.0300	15.185
181.370	949.21	-0.5164	-0.0300	15.186
181.395	949.21	-0.5164	-0.0300	15.185
181.420	949.21	-0.5165	-0.0300	15.185
181.445	949.21	-0.5165	-0.0300	15.186
181.470	949.21	-0.5165	-0.0300	15.186
181.495	949.21	-0.5165	-0.0300	15.186
181.520	949.21	-0.5165	-0.0300	15.187
181.545	949.21	-0.5165	-0.0300	15.188
181.570	949.21	-0.5166	-0.0300	15.189
181.595	949.21	-0.5166	-0.0300	15.191
181.620	949.21	-0.5167	-0.0300	15.192
181.645	949.21	-0.5168	-0.0300	15.194
181.670	949.21	-0.5169	-0.0300	15.196
181.695	949.21	-0.5169	-0.0300	15.201
181.720	949.21	-0.5170	-0.0300	15.207
181.745	949.21	-0.5170	-0.0300	15.213
181.770	949.21	-0.5171	-0.0300	15.219
181.795	949.21	-0.5172	-0.0301	15.224
181.820	949.21	-0.5173	-0.0301	15.231
181.845	949.21	-0.5173	-0.0301	15.236
181.870	949.21	-0.5175	-0.0301	15.241
181.895	949.21	-0.5176	-0.0301	15.245
181.920	949.21	-0.5176	-0.0301	15.249
181.945	949.21	-0.5177	-0.0301	15.253
181.970	949.21	-0.5178	-0.0301	15.258
181.995	949.21	-0.5179	-0.0301	15.264
182.020	949.21	-0.5180	-0.0301	15.270
182.045	949.21	-0.5182	-0.0301	15.277
182.070	949.21	-0.5183	-0.0301	15.282
182.095	949.21	-0.5185	-0.0301	15.287
182.120	949.21	-0.5186	-0.0301	15.293
182.145	949.21	-0.5188	-0.0301	15.298
182.170	949.21	-0.5188	-0.0301	15.305
182.195	949.21	-0.5188	-0.0301	15.312
182.220	949.21	-0.5188	-0.0301	15.318
182.245	949.21	-0.5189	-0.0302	15.323
182.270	949.21	-0.5190	-0.0302	15.328
182.295		-0.5191	-0.0302
182.312		-0.5192	-0.0302