File: _test/SDa_1.txt
Time	Temperature	Weight	Weight	Heat Flow
min	°C	%	mg	mW
0.003		100.0011	18.3336
0.012		100.0044	18.3342
0.020		100.0085	18.3350
0.028		100.0128	18.3357
0.037		100.0168	18.3365
0.045	21.26	100.0204	18.3371	-17.116
0.053	21.26	100.0236	18.3377	-17.127
0.062	21.25	100.0263	18.3382	-17.139
0.070	21.25	100.0285	18.3386	-17.152
0.078	21.25	100.0301	18.3389	-17.165
0.087	21.25	100.0303	18.3389	-17.178
0.095	21.24	100.0295	18.3388	-17.191
0.103	21.24	100.0284	18.3386	-17.204
0.112	21.24	100.0272	18.3384	-17.218
0.120	21.23	100.0258	18.3381	-17.230
0.128	21.23	100.0244	18.3379	-17.245
0.137	21.23	100.0228	18.3376	-17.259
0.145	21.23	100.0213	18.3373	-17.273
0.153	21.23	100.0196	18.3370	-17.288
0.162	21.22	100.0179	18.3367	-17.303
0.170	21.22	100.0161	18.3363	-17.318
0.178	21.22	100.0142	18.3360	-17.332
0.187	21.22	100.0123	18.3356	-17.347
0.195	21.22	100.0103	18.3353	-17.363
0.203	21.21	100.0083	18.3349	-17.380
0.212	21.21	100.0062	18.3345	-17.397
0.220	21.21	100.0040	18.3341	-17.415
0.228	21.21	100.0018	18.3337	-17.433
0.237	21.21	99.9995	18.3333	-17.452
0.245	21.21	99.9971	18.3329	-17.471
0.253	21.21	99.9946	18.3324	-17.490
0.262	21.21	99.9921	18.3319	-17.510
0.270	21.21	99.9895	18.3315	-17.530
0.278	21.21	99.9868	18.3310	-17.551
0.287	21.21	99.9840	18.3305	-17.571
0.295	21.22	99.9812	18.3299	-17.592
0.303	21.22	99.9782	18.3294	-17.613
0.312	21.22	99.9752	18.3288	-17.634
0.320	21.23	99.9721	18.3283	-17.656
0.328	21.23	99.9689	18.3277	-17.679
0.337	21.24	99.9657	18.3271	-17.703
0.345	21.24	99.9624	18.3265	-17.727
0.353	21.25	99.9590	18.3259	-17.751
0.362	21.25	99.9555	18.3252	-17.776
0.370	21.26	99.9520	18.3246	-17.801
0.378	21.27	99.9484	18.3239	-17.827
0.387	21.28	99.9447	18.3233	-17.852
0.395	21.29	99.9411	18.3226	-17.879
0.403	21.30	99.9373	18.3219	-17.905
0.412	21.31	99.9336	18.3212	-17.932
0.420	21.32	99.9297	18.3205	-17.958
0.428	21.33	99.9259	18.3198	-17.986
0.437	21.34	99.9220	18.3191	-18.013
0.445	21.36	99.9181	18.3184	-18.041
0.453	21.37	99.9141	18.3176	-18.070
0.462	21.38	99.9101	18.3169	-18.098
0.470	21.40	99.9060	18.3162	-18.127
0.478	21.41	99.9020	18.3154	-18.156
0.487	21.43	99.8979	18.3147	-18.186
0.495	21.45	99.8937	18.3139	-18.216
0.503	21.47	99.8896	18.3131	-18.246
0.512	21.49	99.8854	18.3124	-18.277
0.520	21.51	99.8811	18.3116	-18.309
0.528	21.53	99.8769	18.3108	-18.340
0.537	21.55	99.8727	18.3100	-18.371
0.545	21.57	99.8684	18.3093	-18.403
0.553	21.59	99.8641	18.3085	-18.435
0.562	21.61	99.8598	18.3077	-18.468
0.570	21.64	99.8555	18.3069	-18.501
0.578	21.66	99.8512	18.3061	-18.534
0.587	21.69	99.8469	18.3053	-18.567
0.595	21.71	99.8426	18.3045	-18.600
0.603	21.74	99.8383	18.3037	-18.633
0.612	21.77	99.8340	18.3030	-18.666
0.620	21.79	99.8297	18.3022	-18.699
0.628	21.82	99.8254	18.3014	-18.733
0.637	21.85	99.8212	18.3006	-18.766
0.645	21.88	99.8169	18.2998	-18.800
0.653	21.91	99.8127	18.2991	-18.833
0.662	21.95	99.8085	18.2983	-18.865
0.670	21.98	99.8043	18.2975	-18.898
0.678	22.01	99.8002	18.2968	-18.931
0.687	22.05	99.7960	18.2960	-18.964
0.695	22.08	99.7919	18.2952	-18.998
0.703	22.12	99.7879	18.2945	-19.032
0.712	22.16	99.7838	18.2938	-19.065
0.720	22.20	99.7798	18.2930	-19.097
0.728	22.23	99.7758	18.2923	-19.130
0.737	22.27	99.7719	18.2916	-19.163
0.745	22.31	99.7680	18.2908	-19.195
0.753	22.35	99.7641	18.2901	-19.228
0.762	22.39	99.7602	18.2894	-19.260
0.770	22.44	99.7564	18.2887	-19.292
0.778	22.48	99.7526	18.2880	-19.323
0.787	22.53	99.7489	18.2873	-19.353
0.795	22.57	99.7451	18.2867	-19.383
0.803	22.62	99.7414	18.2860	-19.414
0.812	22.66	99.7378	18.2853	-19.443
0.820	22.71	99.7341	18.2846	-19.471
0.828	22.76	99.7305	18.2840	-19.501
0.837	22.81	99.7269	18.2833	-19.529
0.845	22.86	99.7233	18.2827	-19.557
0.853	22.91	99.7197	18.2820	-19.584
0.862	22.96	99.7162	18.2814	-19.612
0.870	23.01	99.7126	18.2807	-19.639
0.878	23.07	99.7091	18.2801	-19.666
0.887	23.12	99.7056	18.2794	-19.692
0.895	23.18	99.7021	18.2788	-19.719
0.903	23.23	99.6986	18.2781	-19.745
0.912	23.29	99.6951	18.2775	-19.769
0.920	23.34	99.6916	18.2769	-19.793
0.928	23.40	99.6882	18.2762	-19.817
0.937	23.46	99.6847	18.2756	-19.840
0.945	23.52	99.6812	18.2749	-19.862
0.953	23.58	99.6778	18.2743	-19.884
0.962	23.64	99.6743	18.2737	-19.905
0.970	23.70	99.6708	18.2730	-19.925
0.978	23.76	99.6674	18.2724	-19.945
0.987	23.83	99.6639	18.2718	-19.964
0.995	23.89	99.6604	18.2711	-19.983
1.003	23.95	99.6569	18.2705	-20.001
1.012	24.02	99.6534	18.2698	-20.019
1.020	24.08	99.6499	18.2692	-20.037
1.028	24.15	99.6464	18.2686	-20.055
1.037	24.22	99.6429	18.2679	-20.072
1.045	24.28	99.6393	18.2673	-20.088
1.053	24.35	99.6358	18.2666	-20.105
1.062	24.42	99.6322	18.2660	-20.121
1.070	24.49	99.6287	18.2653	-20.137
1.078	24.56	99.6251	18.2647	-20.153
1.087	24.63	99.6215	18.2640	-20.168
1.095	24.70	99.6179	18.2633	-20.182
1.103	24.77	99.6143	18.2627	-20.196
1.112	24.84	99.6106	18.2620	-20.210
1.120	24.91	99.6070	18.2613	-20.223
1.128	24.99	99.6033	18.2607	-20.235
1.137	25.06	99.5996	18.2600	-20.247
1.145	25.14	99.5959	18.2593	-20.259
1.153	25.21	99.5922	18.2586	-20.270
1.162	25.29	99.5885	18.2579	-20.280
1.170	25.36	99.5848	18.2573	-20.289
1.178	25.44	99.5810	18.2566	-20.299
1.187	25.52	99.5772	18.2559	-20.308
1.195	25.60	99.5734	18.2552	-20.317
1.203	25.67	99.5696	18.2545	-20.325
1.212	25.75	99.5658	18.2538	-20.333
1.220	25.83	99.5620	18.2531	-20.341
1.228	25.91	99.5581	18.2524	-20.348
1.237	25.99	99.5543	18.2517	-20.355
1.245	26.07	99.5504	18.2510	-20.361
1.253	26.15	99.5465	18.2502	-20.368
1.262	26.23	99.5426	18.2495	-20.373
1.270	26.32	99.5386	18.2488	-20.379
1.278	26.40	99.5347	18.2481	-20.384
1.287	26.48	99.5307	18.2474	-20.389
1.295	26.57	99.5267	18.2466	-20.393
1.303	26.65	99.5227	18.2459	-20.398
1.312	26.73	99.5187	18.2452	-20.402
1.320	26.82	99.5147	18.2444	-20.406
1.328	26.90	99.5106	18.2437	-20.409
1.337	26.99	99.5065	18.2429	-20.412
1.345	27.07	99.5024	18.2422	-20.415
1.353	27.16	99.4983	18.2414	-20.418
1.362	27.25	99.4942	18.2407	-20.421
1.370	27.33	99.4900	18.2399	-20.423
1.378	27.42	99.4859	18.2391	-20.425
1.387	27.51	99.4817	18.2384	-20.427
1.395	27.60	99.4775	18.2376	-20.429
1.403	27.69	99.4733	18.2368	-20.431
1.412	27.77	99.4690	18.2360	-20.432
1.420	27.86	99.4647	18.2353	-20.433
1.428	27.95	99.4605	18.2345	-20.434
1.437	28.04	99.4562	18.2337	-20.435
1.445	28.13	99.4518	18.2329	-20.436
1.453	28.22	99.4475	18.2321	-20.437
1.462	28.31	99.4431	18.2313	-20.437
1.470	28.40	99.4388	18.2305	-20.437
1.478	28.49	99.4343	18.2297	-20.438
1.487	28.58	99.4299	18.2289	-20.437
1.495	28.68	99.4255	18.2281	-20.437
1.503	28.77	99.4211	18.2272	-20.436
1.512	28.86	99.4166	18.2264	-20.435
1.520	28.95	99.4121	18.2256	-20.433
1.528	29.04	99.4076	18.2248	-20.431
1.537	29.14	99.4031	18.2240	-20.428
1.545	29.23	99.3985	18.2231	-20.425
1.553	29.32	99.3940	18.2223	-20.421
1.562	29.42	99.3894	18.2214	-20.417
1.570	29.51	99.3848	18.2206	-20.412
1.578	29.61	99.3801	18.2197	-20.407
1.587	29.70	99.3755	18.2189	-20.401
1.595	29.80	99.3708	18.2180	-20.395
1.603	29.89	99.3662	18.2172	-20.388
1.612	29.99	99.3614	18.2163	-20.382
1.620	30.08	99.3567	18.2155	-20.375
1.628	30.18	99.3520	18.2146	-20.367
1.637	30.27	99.3472	18.2137	-20.358
1.645	30.37	99.3424	18.2128	-20.349
1.653	30.46	99.3375	18.2119	-20.340
1.662	30.56	99.3327	18.2110	-20.332
1.670	30.65	99.3278	18.2101	-20.323
1.678	30.75	99.3228	18.2092	-20.314
1.687	30.85	99.3179	18.2083	-20.304
1.695	30.94	99.3129	18.2074	-20.294
1.703	31.04	99.3078	18.2065	-20.283
1.712	31.14	99.3027	18.2056	-20.273
1.720	31.23	99.2975	18.2046	-20.264
1.728	31.33	99.2923	18.2036	-20.253
1.737	31.43	99.2871	18.2027	-20.243
1.745	31.53	99.2818	18.2017	-20.232
1.753	31.62	99.2765	18.2007	-20.221
1.762	31.72	99.2711	18.1998	-20.209
1.770	31.82	99.2656	18.1988	-20.198
1.778	31.92	99.2602	18.1978	-20.187
1.787	32.01	99.2547	18.1967	-20.176
1.795	32.11	99.2491	18.1957	-20.164
1.803	32.21	99.2434	18.1947	-20.152
1.812	32.31	99.2377	18.1936	-20.140
1.820	32.41	99.2320	18.1926	-20.128
1.828	32.50	99.2262	18.1915	-20.116
1.837	32.60	99.2203	18.1904	-20.104
1.845	32.70	99.2144	18.1894	-20.092
1.853	32.80	99.2084	18.1883	-20.079
1.862	32.90	99.2024	18.1872	-20.066
1.870	32.99	99.1963	18.1860	-20.053
1.878	33.09	99.1902	18.1849	-20.041
1.887	33.19	99.1840	18.1838	-20.027
1.895	33.29	99.1778	18.1827	-20.014
1.903	33.39	99.1715	18.1815	-20.000
1.912	33.49	99.1652	18.1803	-19.986
1.920	33.58	99.1589	18.1792	-19.972
1.928	33.68	99.1525	18.1780	-19.959
1.937	33.78	99.1461	18.1768	-19.944
1.945	33.88	99.1396	18.1757	-19.930
1.953	33.98	99.1331	18.1745	-19.914
1.962	34.08	99.1265	18.1733	-19.900
1.970	34.18	99.1199	18.1720	-19.885
1.978	34.27	99.1133	18.1708	-19.870
1.987	34.37	99.1066	18.1696	-19.855
1.995	34.47	99.0999	18.1684	-19.840
2.003	34.57	99.0931	18.1671	-19.824
2.012	34.67	99.0863	18.1659	-19.808
2.020	34.77	99.0794	18.1646	-19.793
2.028	34.86	99.0725	18.1633	-19.777
2.037	34.96	99.0656	18.1621	-19.762
2.045	35.06	99.0586	18.1608	-19.746
2.053	35.16	99.0516	18.1595	-19.730
2.062	35.26	99.0446	18.1582	-19.714
2.070	35.36	99.0375	18.1569	-19.698
2.078	35.45	99.0303	18.1556	-19.681
2.087	35.55	99.0231	18.1543	-19.664
2.095	35.65	99.0159	18.1530	-19.647
2.103	35.75	99.0087	18.1516	-19.629
2.112	35.85	99.0014	18.1503	-19.612
2.120	35.95	98.9941	18.1490	-19.595
2.128	36.04	98.9867	18.1476	-19.578
2.137	36.14	98.9793	18.1463	-19.560
2.145	36.24	98.9719	18.1449	-19.542
2.153	36.34	98.9645	18.1436	-19.525
2.162	36.44	98.9571	18.1422	-19.508
2.170	36.53	98.9496	18.1408	-19.491
2.178	36.63	98.9421	18.1394	-19.474
2.187	36.73	98.9346	18.1381	-19.457
2.195	36.83	98.9270	18.1367	-19.439
2.203	36.92	98.9194	18.1353	-19.421
2.212	37.02	98.9118	18.1339	-19.403
2.220	37.12	98.9041	18.1325	-19.386
2.228	37.21	98.8964	18.1311	-19.367
2.237	37.31	98.8887	18.1296	-19.349
2.245	37.41	98.8810	18.1282	-19.331
2.253	37.51	98.8732	18.1268	-19.313
2.262	37.60	98.8655	18.1254	-19.295
2.270	37.70	98.8577	18.1240	-19.276
2.278	37.79	98.8499	18.1225	-19.258
2.287	37.89	98.8421	18.1211	-19.240
2.295	37.99	98.8343	18.1197	-19.221
2.303	38.08	98.8265	18.1182	-19.202
2.312	38.18	98.8186	18.1168	-19.183
2.320	38.28	98.8106	18.1153	-19.164
2.328	38.37	98.8026	18.1139	-19.146
2.337	38.47	98.7946	18.1124	-19.126
2.345	38.56	98.7865	18.1109	-19.108
2.353	38.66	98.7785	18.1094	-19.090
2.362	38.76	98.7704	18.1080	-19.071
2.370	38.85	98.7623	18.1065	-19.052
2.378	38.95	98.7541	18.1050	-19.034
2.387	39.04	98.7459	18.1035	-19.016
2.395	39.14	98.7377	18.1020	-18.998
2.403	39.23	98.7296	18.1005	-18.980
2.412	39.33	98.7215	18.0990	-18.961
2.420	39.42	98.7133	18.0975	-18.943
2.428	39.52	98.7052	18.0960	-18.924
2.437	39.61	98.6970	18.0945	-18.904
2.445	39.71	98.6887	18.0930	-18.886
2.453	39.80	98.6805	18.0915	-18.866
2.462	39.90	98.6723	18.0900	-18.847
2.470	39.99	98.6640	18.0885	-18.827
2.478	40.08	98.6557	18.0869	-18.807
2.487	40.18	98.6473	18.0854	-18.787
2.495	40.27	98.6390	18.0839	-18.768
2.503	40.37	98.6306	18.0823	-18.747
2.512	40.46	98.6222	18.0808	-18.728
2.520	40.55	98.6138	18.0793	-18.708
2.528	40.65	98.6053	18.0777	-18.687
2.537	40.74	98.5969	18.0761	-18.668
2.545	40.83	98.5883	18.0746	-18.648
2.553	40.93	98.5798	18.0730	-18.628
2.562	41.02	98.5712	18.0714	-18.608
2.570	41.11	98.5627	18.0699	-18.588
2.578	41.20	98.5540	18.0683	-18.568
2.587	41.30	98.5454	18.0667	-18.549
2.595	41.39	98.5367	18.0651	-18.529
2.603	41.48	98.5280	18.0635	-18.509
2.612	41.57	98.5193	18.0619	-18.490
2.620	41.67	98.5107	18.0603	-18.470
2.628	41.76	98.5020	18.0588	-18.451
2.637	41.85	98.4933	18.0572	-18.432
2.645	41.94	98.4845	18.0556	-18.412
2.653	42.03	98.4758	18.0539	-18.393
2.662	42.12	98.4670	18.0523	-18.373
2.670	42.22	98.4582	18.0507	-18.354
2.678	42.31	98.4493	18.0491	-18.334
2.687	42.40	98.4404	18.0475	-18.314
2.695	42.49	98.4315	18.0458	-18.294
2.703	42.58	98.4226	18.0442	-18.274
2.712	42.67	98.4137	18.0426	-18.254
2.720	42.76	98.4048	18.0409	-18.233
2.728	42.85	98.3959	18.0393	-18.213
2.737	42.94	98.3870	18.0377	-18.193
2.745	43.03	98.3780	18.0360	-18.173
2.753	43.12	98.3690	18.0344	-18.153
2.762	43.21	98.3600	18.0327	-18.133
2.770	43.30	98.3511	18.0311	-18.112
2.778	43.39	98.3421	18.0294	-18.092
2.787	43.48	98.3331	18.0278	-18.073
2.795	43.57	98.3241	18.0261	-18.053
2.803	43.66	98.3151	18.0245	-18.033
2.812	43.75	98.3061	18.0228	-18.014
2.820	43.84	98.2970	18.0212	-17.995
2.828	43.93	98.2880	18.0195	-17.974
2.837	44.02	98.2789	18.0179	-17.954
2.845	44.11	98.2698	18.0162	-17.934
2.853	44.20	98.2607	18.0145	-17.914
2.862	44.28	98.2516	18.0128	-17.893
2.870	44.37	98.2424	18.0112	-17.873
2.878	44.46	98.2332	18.0095	-17.852
2.887	44.55	98.2241	18.0078	-17.833
2.895	44.64	98.2150	18.0061	-17.813
2.903	44.73	98.2058	18.0045	-17.793
2.912	44.81	98.1966	18.0028	-17.774
2.920	44.90	98.1875	18.0011	-17.755
2.928	44.99	98.1783	17.9994	-17.736
2.937	45.08	98.1691	17.9977	-17.717
2.945	45.16	98.1599	17.9960	-17.697
2.953	45.25	98.1507	17.9943	-17.677
2.962	45.34	98.1414	17.9926	-17.658
2.970	45.43	98.1321	17.9909	-17.637
2.978	45.52	98.1228	17.9892	-17.617
2.987	45.60	98.1135	17.9875	-17.597
2.995	45.69	98.1041	17.9858	-17.577
3.003	45.78	98.0948	17.9841	-17.556
3.012	45.86	98.0854	17.9824	-17.536
3.020	45.95	98.0761	17.9807	-17.516
3.028	46.04	98.0667	17.9789	-17.497
3.037	46.12	98.0573	17.9772	-17.477
3.045	46.21	98.0479	17.9755	-17.457
3.053	46.30	98.0385	17.9738	-17.437
3.062	46.39	98.0291	17.9720	-17.418
3.070	46.47	98.0197	17.9703	-17.398
3.078	46.56	98.0103	17.9686	-17.378
3.087	46.64	98.0008	17.9669	-17.359
3.095	46.73	97.9914	17.9651	-17.339
3.103	46.81	97.9819	17.9634	-17.319
3.112	46.90	97.9726	17.9617	-17.299
3.120	46.99	97.9632	17.9600	-17.279
3.128	47.07	97.9539	17.9583	-17.260
3.137	47.16	97.9445	17.9565	-17.240
3.145	47.24	97.9350	17.9548	-17.221
3.153	47.33	97.9256	17.9531	-17.201
3.162	47.41	97.9161	17.9513	-17.181
3.170	47.50	97.9066	17.9496	-17.162
3.178	47.58	97.8972	17.9479	-17.142
3.187	47.67	97.8877	17.9461	-17.121
3.195	47.76	97.8782	17.9444	-17.101
3.203	47.84	97.8687	17.9426	-17.081
3.212	47.93	97.8592	17.9409	-17.061
3.220	48.01	97.8496	17.9392	-17.040
3.228	48.10	97.8401	17.9374	-17.019
3.237	48.18	97.8306	17.9357	-16.998
3.245	48.26	97.8210	17.9339	-16.976
3.253	48.35	97.8114	17.9322	-16.955
3.262	48.43	97.8019	17.9304	-16.935
3.270	48.52	97.7922	17.9286	-16.914
3.278	48.60	97.7826	17.9269	-16.893
3.287	48.69	97.7730	17.9251	-16.872
3.295	48.77	97.7634	17.9233	-16.850
3.303	48.86	97.7538	17.9216	-16.829
3.312	48.94	97.7442	17.9198	-16.808
3.320	49.02	97.7347	17.9181	-16.787
3.328	49.11	97.7252	17.9163	-16.768
3.337	49.19	97.7156	17.9146	-16.747
3.345	49.28	97.7060	17.9128	-16.726
3.353	49.36	97.6964	17.9111	-16.705
3.362	49.44	97.6869	17.9093	-16.684
3.370	49.53	97.6773	17.9076	-16.663
3.378	49.61	97.6677	17.9058	-16.643
3.387	49.70	97.6582	17.9041	-16.623
3.395	49.78	97.6486	17.9023	-16.602
3.403	49.86	97.6390	17.9005	-16.582
3.412	49.95	97.6294	17.8988	-16.561
3.420	50.03	97.6199	17.8970	-16.540
3.428	50.11	97.6103	17.8953	-16.520
3.437	50.20	97.6007	17.8935	-16.500
3.445	50.28	97.5911	17.8918	-16.480
3.453	50.36	97.5816	17.8900	-16.460
3.462	50.45	97.5720	17.8882	-16.439
3.470	50.53	97.5623	17.8865	-16.417
3.478	50.61	97.5527	17.8847	-16.396
3.487	50.70	97.5430	17.8829	-16.375
3.495	50.78	97.5334	17.8812	-16.353
3.503	50.86	97.5237	17.8794	-16.332
3.512	50.95	97.5141	17.8776	-16.310
3.520	51.03	97.5045	17.8759	-16.289
3.528	51.11	97.4949	17.8741	-16.268
3.537	51.20	97.4852	17.8723	-16.246
3.545	51.28	97.4756	17.8706	-16.225
3.553	51.36	97.4660	17.8688	-16.205
3.562	51.44	97.4564	17.8671	-16.184
3.570	51.53	97.4468	17.8653	-16.163
3.578	51.61	97.4372	17.8635	-16.142
3.587	51.69	97.4276	17.8618	-16.121
3.595	51.78	97.4180	17.8600	-16.100
3.603	51.86	97.4085	17.8583	-16.078
3.612	51.94	97.3990	17.8565	-16.056
3.620	52.03	97.3895	17.8548	-16.035
3.628	52.11	97.3799	17.8530	-16.013
3.637	52.19	97.3704	17.8513	-15.991
3.645	52.28	97.3609	17.8496	-15.969
3.653	52.36	97.3514	17.8478	-15.947
3.662	52.44	97.3419	17.8461	-15.925
3.670	52.52	97.3325	17.8443	-15.903
3.678	52.61	97.3230	17.8426	-15.881
3.687	52.69	97.3134	17.8408	-15.859
3.695	52.77	97.3039	17.8391	-15.837
3.703	52.85	97.2944	17.8374	-15.815
3.712	52.94	97.2849	17.8356	-15.793
3.720	53.02	97.2754	17.8339	-15.771
3.728	53.10	97.2659	17.8321	-15.748
3.737	53.19	97.2564	17.8304	-15.725
3.745	53.27	97.2469	17.8286	-15.703
3.753	53.35	97.2373	17.8269	-15.680
3.762	53.43	97.2278	17.8252	-15.657
3.770	53.52	97.2183	17.8234	-15.635
3.778	53.60	97.2089	17.8217	-15.613
3.787	53.68	97.1994	17.8200	-15.590
3.795	53.76	97.1900	17.8182	-15.568
3.803	53.85	97.1806	17.8165	-15.546
3.812	53.93	97.1712	17.8148	-15.525
3.820	54.01	97.1618	17.8130	-15.502
3.828	54.09	97.1524	17.8113	-15.479
3.837	54.18	97.1431	17.8096	-15.456
3.845	54.26	97.1337	17.8079	-15.433
3.853	54.34	97.1243	17.8062	-15.410
3.862	54.42	97.1149	17.8045	-15.388
3.870	54.51	97.1055	17.8027	-15.365
3.878	54.59	97.0961	17.8010	-15.341
3.887	54.67	97.0867	17.7993	-15.318
3.895	54.75	97.0774	17.7976	-15.295
3.903	54.84	97.0680	17.7959	-15.273
3.912	54.92	97.0586	17.7941	-15.250
3.920	55.00	97.0493	17.7924	-15.225
3.928	55.09	97.0400	17.7907	-15.202
3.937	55.17	97.0306	17.7890	-15.178
3.945	55.25	97.0214	17.7873	-15.153
3.953	55.33	97.0121	17.7856	-15.129
3.962	55.42	97.0028	17.7839	-15.106
3.970	55.50	96.9936	17.7822	-15.083
3.978	55.58	96.9843	17.7805	-15.059
3.987	55.67	96.9750	17.7788	-15.034
3.995	55.75	96.9658	17.7771	-15.010
4.003	55.83	96.9566	17.7754	-14.988
4.012	55.91	96.9474	17.7737	-14.964
4.020	56.00	96.9382	17.7721	-14.941
4.028	56.08	96.9290	17.7704	-14.917
4.037	56.16	96.9198	17.7687	-14.893
4.045	56.25	96.9106	17.7670	-14.869
4.053	56.33	96.9014	17.7653	-14.843
4.062	56.41	96.8923	17.7636	-14.818
4.070	56.49	96.8832	17.7620	-14.794
4.078	56.58	96.8741	17.7603	-14.769
4.087	56.66	96.8650	17.7586	-14.744
4.095	56.74	96.8559	17.7570	-14.719
4.103	56.83	96.8469	17.7553	-14.693
4.112	56.91	96.8378	17.7537	-14.668
4.120	56.99	96.8288	17.7520	-14.644
4.128	57.07	96.8198	17.7504	-14.618
4.137	57.16	96.8108	17.7487	-14.594
4.145	57.24	96.8017	17.7470	-14.569
4.153	57.32	96.7927	17.7454	-14.545
4.162	57.41	96.7837	17.7437	-14.520
4.170	57.49	96.7747	17.7421	-14.495
4.178	57.57	96.7656	17.7404	-14.470
4.187	57.66	96.7566	17.7388	-14.446
4.195	57.74	96.7476	17.7371	-14.421
4.203	57.82	96.7387	17.7355	-14.396
4.212	57.91	96.7297	17.7338	-14.371
4.220	57.99	96.7207	17.7322	-14.345
4.228	58.07	96.7118	17.7306	-14.320
4.237	58.16	96.7029	17.7289	-14.294
4.245	58.24	96.6940	17.7273	-14.269
4.253	58.32	96.6852	17.7257	-14.243
4.262	58.41	96.6764	17.7241	-14.218
4.270	58.49	96.6675	17.7224	-14.191
4.278	58.58	96.6588	17.7208	-14.165
4.287	58.66	96.6500	17.7192	-14.140
4.295	58.74	96.6413	17.7176	-14.114
4.303	58.83	96.6326	17.7160	-14.088
4.312	58.91	96.6239	17.7144	-14.061
4.320	58.99	96.6151	17.7128	-14.035
4.328	59.08	96.6064	17.7112	-14.008
4.337	59.16	96.5977	17.7096	-13.982
4.345	59.25	96.5891	17.7080	-13.955
4.353	59.33	96.5804	17.7065	-13.928
4.362	59.41	96.5717	17.7049	-13.902
4.370	59.50	96.5630	17.7033	-13.875
4.378	59.58	96.5543	17.7017	-13.848
4.387	59.66	96.5456	17.7001	-13.822
4.395	59.75	96.5370	17.6985	-13.795
4.403	59.83	96.5284	17.6969	-13.769
4.412	59.92	96.5198	17.6953	-13.742
4.420	60.00	96.5112	17.6938	-13.716
4.428	60.08	96.5026	17.6922	-13.689
4.437	60.17	96.4941	17.6906	-13.662
4.445	60.25	96.4857	17.6891	-13.635
4.453	60.33	96.4772	17.6875	-13.608
4.462	60.42	96.4687	17.6860	-13.581
4.470	60.50	96.4602	17.6844	-13.554
4.478	60.59	96.4517	17.6829	-13.527
4.487	60.67	96.4433	17.6813	-13.499
4.495	60.76	96.4349	17.6798	-13.472
4.503	60.84	96.4266	17.6783	-13.445
4.512	60.92	96.4182	17.6767	-13.416
4.520	61.01	96.4098	17.6752	-13.388
4.528	61.09	96.4015	17.6737	-13.359
4.537	61.18	96.3932	17.6721	-13.330
4.545	61.26	96.3849	17.6706	-13.302
4.553	61.35	96.3766	17.6691	-13.273
4.562	61.43	96.3683	17.6676	-13.244
4.570	61.52	96.3601	17.6661	-13.214
4.578	61.60	96.3518	17.6646	-13.185
4.587	61.68	96.3436	17.6630	-13.156
4.595	61.77	96.3353	17.6615	-13.128
4.603	61.85	96.3272	17.6600	-13.100
4.612	61.94	96.3190	17.6585	-13.071
4.620	62.02	96.3108	17.6570	-13.043
4.628	62.11	96.3026	17.6555	-13.015
4.637	62.19	96.2944	17.6540	-12.987
4.645	62.28	96.2863	17.6525	-12.959
4.653	62.36	96.2782	17.6511	-12.930
4.662	62.45	96.2702	17.6496	-12.901
4.670	62.53	96.2621	17.6481	-12.872
4.678	62.62	96.2541	17.6466	-12.843
4.687	62.70	96.2461	17.6452	-12.814
4.695	62.79	96.2381	17.6437	-12.784
4.703	62.87	96.2301	17.6422	-12.755
4.712	62.96	96.2221	17.6408	-12.726
4.720	63.04	96.2142	17.6393	-12.697
4.728	63.13	96.2063	17.6379	-12.667
4.737	63.21	96.1983	17.6364	-12.638
4.745	63.30	96.1904	17.6350	-12.609
4.753	63.38	96.1825	17.6335	-12.579
4.762	63.47	96.1746	17.6321	-12.549
4.770	63.55	96.1667	17.6306	-12.519
4.778	63.64	96.1588	17.6292	-12.489
4.787	63.72	96.1510	17.6277	-12.459
4.795	63.81	96.1431	17.6263	-12.429
4.803	63.89	96.1353	17.6249	-12.399
4.812	63.98	96.1275	17.6234	-12.369
4.820	64.07	96.1198	17.6220	-12.338
4.828	64.15	96.1120	17.6206	-12.308
4.837	64.24	96.1043	17.6192	-12.278
4.845	64.32	96.0966	17.6178	-12.249
4.853	64.41	96.0890	17.6164	-12.219
4.862	64.49	96.0813	17.6150	-12.188
4.870	64.58	96.0738	17.6136	-12.158
4.878	64.66	96.0662	17.6122	-12.127
4.887	64.75	96.0587	17.6108	-12.096
4.895	64.84	96.0511	17.6094	-12.065
4.903	64.92	96.0436	17.6081	-12.035
4.912	65.01	96.0361	17.6067	-12.004
4.920	65.09	96.0286	17.6053	-11.974
4.928	65.18	96.0211	17.6039	-11.943
4.937	65.26	96.0137	17.6026	-11.912
4.945	65.35	96.0063	17.6012	-11.881
4.953	65.44	95.9989	17.5998	-11.850
4.962	65.52	95.9915	17.5985	-11.820
4.970	65.61	95.9841	17.5971	-11.789
4.978	65.69	95.9767	17.5958	-11.758
4.987	65.78	95.9693	17.5944	-11.727
4.995	65.86	95.9620	17.5931	-11.696
5.003	65.95	95.9546	17.5917	-11.665
5.012	66.04	95.9473	17.5904	-11.633
5.020	66.12	95.9400	17.5891	-11.602
5.028	66.21	95.9327	17.5877	-11.571
5.037	66.29	95.9255	17.5864	-11.539
5.045	66.38	95.9182	17.5851	-11.507
5.053	66.47	95.9110	17.5837	-11.475
5.062	66.55	95.9038	17.5824	-11.443
5.070	66.64	95.8966	17.5811	-11.411
5.078	66.73	95.8895	17.5798	-11.379
5.087	66.81	95.8824	17.5785	-11.347
5.095	66.90	95.8753	17.5772	-11.315
5.103	66.98	95.8682	17.5759	-11.283
5.112	67.07	95.8611	17.5746	-11.251
5.120	67.16	95.8541	17.5733	-11.219
5.128	67.24	95.8470	17.5720	-11.187
5.137	67.33	95.8400	17.5707	-11.155
5.145	67.42	95.8330	17.5694	-11.123
5.153	67.50	95.8260	17.5682	-11.091
5.162	67.59	95.8190	17.5669	-11.059
5.170	67.68	95.8120	17.5656	-11.027
5.178	67.76	95.8050	17.5643	-10.995
5.187	67.85	95.7981	17.5630	-10.963
5.195	67.94	95.7912	17.5618	-10.931
5.203	68.02	95.7843	17.5605	-10.898
5.212	68.11	95.7775	17.5593	-10.866
5.220	68.20	95.7706	17.5580	-10.833
5.228	68.28	95.7638	17.5567	-10.801
5.237	68.37	95.7570	17.5555	-10.768
5.245	68.46	95.7502	17.5543	-10.735
5.253	68.54	95.7435	17.5530	-10.702
5.262	68.63	95.7368	17.5518	-10.670
5.270	68.72	95.7302	17.5506	-10.636
5.278	68.80	95.7235	17.5494	-10.604
5.287	68.89	95.7169	17.5481	-10.571
5.295	68.98	95.7102	17.5469	-10.538
5.303	69.06	95.7036	17.5457	-10.506
5.312	69.15	95.6969	17.5445	-10.474
5.320	69.24	95.6903	17.5433	-10.441
5.328	69.32	95.6837	17.5421	-10.408
5.337	69.41	95.6770	17.5408	-10.375
5.345	69.50	95.6704	17.5396	-10.342
5.353	69.58	95.6637	17.5384	-10.309
5.362	69.67	95.6571	17.5372	-10.276
5.370	69.76	95.6505	17.5360	-10.243
5.378	69.85	95.6440	17.5348	-10.210
5.387	69.93	95.6375	17.5336	-10.176
5.395	70.02	95.6310	17.5324	-10.141
5.403	70.11	95.6246	17.5312	-10.108
5.412	70.19	95.6182	17.5301	-10.074
5.420	70.28	95.6118	17.5289	-10.040
5.428	70.37	95.6055	17.5277	-10.007
5.437	70.45	95.5991	17.5266	-9.974
5.445	70.54	95.5928	17.5254	-9.939
5.453	70.63	95.5865	17.5243	-9.905
5.462	70.72	95.5803	17.5231	-9.871
5.470	70.80	95.5740	17.5220	-9.838
5.478	70.89	95.5678	17.5208	-9.804
5.487	70.98	95.5615	17.5197	-9.770
5.495	71.06	95.5553	17.5185	-9.737
5.503	71.15	95.5491	17.5174	-9.703
5.512	71.24	95.5429	17.5163	-9.669
5.520	71.33	95.5367	17.5151	-9.636
5.528	71.41	95.5306	17.5140	-9.602
5.537	71.50	95.5244	17.5129	-9.569
5.545	71.59	95.5183	17.5117	-9.535
5.553	71.67	95.5121	17.5106	-9.500
5.562	71.76	95.5060	17.5095	-9.466
5.570	71.85	95.4999	17.5084	-9.432
5.578	71.94	95.4938	17.5072	-9.398
5.587	72.02	95.4877	17.5061	-9.364
5.595	72.11	95.4817	17.5050	-9.330
5.603	72.20	95.4757	17.5039	-9.296
5.612	72.29	95.4698	17.5028	-9.263
5.620	72.37	95.4638	17.5018	-9.230
5.628	72.46	95.4579	17.5007	-9.196
5.637	72.55	95.4520	17.4996	-9.162
5.645	72.63	95.4462	17.4985	-9.128
5.653	72.72	95.4404	17.4975	-9.094
5.662	72.81	95.4346	17.4964	-9.060
5.670	72.90	95.4288	17.4953	-9.025
5.678	72.98	95.4230	17.4943	-8.990
5.687	73.07	95.4172	17.4932	-8.955
5.695	73.16	95.4115	17.4922	-8.920
5.703	73.25	95.4057	17.4911	-8.885
5.712	73.33	95.4001	17.4901	-8.850
5.720	73.42	95.3944	17.4890	-8.816
5.728	73.51	95.3888	17.4880	-8.782
5.737	73.60	95.3831	17.4870	-8.746
5.745	73.68	95.3775	17.4859	-8.711
5.753	73.77	95.3719	17.4849	-8.677
5.762	73.86	95.3664	17.4839	-8.643
5.770	73.95	95.3608	17.4829	-8.610
5.778	74.03	95.3553	17.4819	-8.576
5.787	74.12	95.3497	17.4808	-8.541
5.795	74.21	95.3442	17.4798	-8.507
5.803	74.29	95.3387	17.4788	-8.472
5.812	74.38	95.3332	17.4778	-8.438
5.820	74.47	95.3278	17.4768	-8.404
5.828	74.56	95.3223	17.4758	-8.370
5.837	74.64	95.3169	17.4748	-8.335
5.845	74.73	95.3115	17.4738	-8.301
5.853	74.82	95.3061	17.4728	-8.265
5.862	74.91	95.3008	17.4719	-8.231
5.870	75.00	95.2954	17.4709	-8.196
5.878	75.08	95.2901	17.4699	-8.162
5.887	75.17	95.2848	17.4689	-8.128
5.895	75.26	95.2794	17.4679	-8.094
5.903	75.35	95.2740	17.4670	-8.059
5.912	75.43	95.2687	17.4660	-8.025
5.920	75.52	95.2634	17.4650	-7.991
5.928	75.61	95.2581	17.4640	-7.956
5.937	75.70	95.2528	17.4631	-7.923
5.945	75.78	95.2476	17.4621	-7.888
5.953	75.87	95.2423	17.4611	-7.853
5.962	75.96	95.2371	17.4602	-7.818
5.970	76.05	95.2319	17.4592	-7.783
5.978	76.13	95.2267	17.4583	-7.748
5.987	76.22	95.2215	17.4573	-7.714
5.995	76.31	95.2164	17.4564	-7.679
6.003	76.40	95.2113	17.4555	-7.644
6.012	76.48	95.2061	17.4545	-7.609
6.020	76.57	95.2010	17.4536	-7.574
6.028	76.66	95.1959	17.4526	-7.539
6.037	76.75	95.1907	17.4517	-7.505
6.045	76.83	95.1856	17.4507	-7.470
6.053	76.92	95.1804	17.4498	-7.436
6.062	77.01	95.1753	17.4489	-7.401
6.070	77.10	95.1701	17.4479	-7.366
6.078	77.19	95.1650	17.4470	-7.331
6.087	77.27	95.1598	17.4460	-7.297
6.095	77.36	95.1547	17.4451	-7.263
6.103	77.45	95.1495	17.4441	-7.228
6.112	77.54	95.1444	17.4432	-7.194
6.120	77.62	95.1393	17.4423	-7.159
6.128	77.71	95.1342	17.4413	-7.124
6.137	77.80	95.1290	17.4404	-7.090
6.145	77.89	95.1239	17.4394	-7.055
6.153	77.98	95.1188	17.4385	-7.021
6.162	78.06	95.1137	17.4376	-6.986
6.170	78.15	95.1086	17.4366	-6.952
6.178	78.24	95.1035	17.4357	-6.916
6.187	78.33	95.0984	17.4348	-6.882
6.195	78.41	95.0933	17.4338	-6.847
6.203	78.50	95.0882	17.4329	-6.812
6.212	78.59	95.0831	17.4320	-6.778
6.220	78.68	95.0780	17.4310	-6.743
6.228	78.76	95.0729	17.4301	-6.709
6.237	78.85	95.0678	17.4292	-6.674
6.245	78.94	95.0627	17.4282	-6.639
6.253	79.03	95.0577	17.4273	-6.605
6.262	79.11	95.0526	17.4264	-6.570
6.270	79.20	95.0476	17.4254	-6.536
6.278	79.29	95.0425	17.4245	-6.501
6.287	79.38	95.0375	17.4236	-6.467
6.295	79.46	95.0325	17.4227	-6.433
6.303	79.55	95.0275	17.4218	-6.398
6.312	79.64	95.0225	17.4208	-6.363
6.320	79.73	95.0175	17.4199	-6.330
6.328	79.81	95.0126	17.4190	-6.296
6.337	79.90	95.0076	17.4181	-6.262
6.345	79.99	95.0026	17.4172	-6.228
6.353	80.08	94.9977	17.4163	-6.194
6.362	80.16	94.9927	17.4154	-6.159
6.370	80.25	94.9878	17.4145	-6.125
6.378	80.34	94.9829	17.4136	-6.091
6.387	80.43	94.9780	17.4127	-6.056
6.395	80.52	94.9731	17.4118	-6.022
6.403	80.60	94.9682	17.4109	-5.988
6.412	80.69	94.9633	17.4100	-5.953
6.420	80.78	94.9584	17.4091	-5.919
6.428	80.87	94.9536	17.4082	-5.885
6.437	80.95	94.9487	17.4073	-5.851
6.445	81.04	94.9439	17.4064	-5.816
6.453	81.13	94.9391	17.4056	-5.783
6.462	81.21	94.9343	17.4047	-5.749
6.470	81.30	94.9295	17.4038	-5.715
6.478	81.39	94.9247	17.4029	-5.680
6.487	81.48	94.9199	17.4020	-5.646
6.495	81.57	94.9151	17.4012	-5.612
6.503	81.65	94.9104	17.4003	-5.577
6.512	81.74	94.9056	17.3994	-5.543
6.520	81.83	94.9009	17.3986	-5.509
6.528	81.92	94.8962	17.3977	-5.474
6.537	82.00	94.8915	17.3968	-5.440
6.545	82.09	94.8868	17.3960	-5.405
6.553	82.18	94.8821	17.3951	-5.372
6.562	82.27	94.8775	17.3943	-5.338
6.570	82.35	94.8728	17.3934	-5.304
6.578	82.44	94.8682	17.3925	-5.271
6.587	82.53	94.8635	17.3917	-5.237
6.595	82.62	94.8589	17.3909	-5.203
6.603	82.70	94.8543	17.3900	-5.169
6.612	82.79	94.8498	17.3892	-5.135
6.620	82.88	94.8452	17.3883	-5.102
6.628	82.97	94.8406	17.3875	-5.068
6.637	83.05	94.8361	17.3867	-5.034
6.645	83.14	94.8316	17.3858	-5.000
6.653	83.23	94.8271	17.3850	-4.966
6.662	83.32	94.8226	17.3842	-4.932
6.670	83.40	94.8181	17.3834	-4.897
6.678	83.49	94.8136	17.3825	-4.863
6.687	83.58	94.8091	17.3817	-4.828
6.695	83.67	94.8047	17.3809	-4.794
6.703	83.76	94.8003	17.3801	-4.759
6.712	83.84	94.7958	17.3793	-4.725
6.720	83.93	94.7914	17.3785	-4.690
6.728	84.02	94.7870	17.3777	-4.655
6.737	84.11	94.7827	17.3769	-4.620
6.745	84.19	94.7783	17.3761	-4.586
6.753	84.28	94.7740	17.3753	-4.552
6.762	84.37	94.7696	17.3745	-4.519
6.770	84.46	94.7653	17.3737	-4.486
6.778	84.54	94.7610	17.3729	-4.452
6.787	84.63	94.7567	17.3721	-4.418
6.795	84.72	94.7525	17.3713	-4.385
6.803	84.81	94.7482	17.3706	-4.352
6.812	84.89	94.7440	17.3698	-4.319
6.820	84.98	94.7398	17.3690	-4.286
6.828	85.07	94.7355	17.3682	-4.253
6.837	85.16	94.7313	17.3675	-4.220
6.845	85.24	94.7272	17.3667	-4.187
6.853	85.33	94.7230	17.3659	-4.154
6.862	85.42	94.7188	17.3652	-4.121
6.870	85.51	94.7147	17.3644	-4.088
6.878	85.59	94.7106	17.3637	-4.055
6.887	85.68	94.7064	17.3629	-4.022
6.895	85.77	94.7023	17.3621	-3.990
6.903	85.86	94.6983	17.3614	-3.956
6.912	85.94	94.6942	17.3607	-3.923
6.920	86.03	94.6901	17.3599	-3.890
6.928	86.12	94.6861	17.3592	-3.856
6.937	86.21	94.6821	17.3584	-3.823
6.945	86.29	94.6780	17.3577	-3.790
6.953	86.38	94.6740	17.3570	-3.757
6.962	86.47	94.6700	17.3562	-3.724
6.970	86.55	94.6661	17.3555	-3.690
6.978	86.64	94.6621	17.3548	-3.657
6.987	86.73	94.6582	17.3540	-3.625
6.995	86.82	94.6542	17.3533	-3.592
7.003	86.90	94.6503	17.3526	-3.559
7.012	86.99	94.6464	17.3519	-3.526
7.020	87.08	94.6425	17.3512	-3.493
7.028	87.17	94.6386	17.3505	-3.460
7.037	87.25	94.6348	17.3498	-3.426
7.045	87.34	94.6309	17.3491	-3.393
7.053	87.43	94.6271	17.3483	-3.360
7.062	87.52	94.6233	17.3476	-3.327
7.070	87.60	94.6195	17.3470	-3.294
7.078	87.69	94.6157	17.3463	-3.260
7.087	87.78	94.6119	17.3456	-3.228
7.095	87.87	94.6081	17.3449	-3.195
7.103	87.95	94.6044	17.3442	-3.163
7.112	88.04	94.6007	17.3435	-3.131
7.120	88.13	94.5969	17.3428	-3.099
7.128	88.21	94.5932	17.3421	-3.067
7.137	88.30	94.5895	17.3415	-3.036
7.145	88.39	94.5859	17.3408	-3.004
7.153	88.48	94.5822	17.3401	-2.973
7.162	88.56	94.5786	17.3395	-2.941
7.170	88.65	94.5749	17.3388	-2.909
7.178	88.74	94.5713	17.3381	-2.876
7.187	88.83	94.5677	17.3375	-2.844
7.195	88.91	94.5641	17.3368	-2.812
7.203	89.00	94.5606	17.3362	-2.780
7.212	89.09	94.5570	17.3355	-2.749
7.220	89.17	94.5534	17.3348	-2.717
7.228	89.26	94.5499	17.3342	-2.685
7.237	89.35	94.5464	17.3336	-2.653
7.245	89.44	94.5428	17.3329	-2.621
7.253	89.52	94.5394	17.3323	-2.588
7.262	89.61	94.5359	17.3316	-2.556
7.270	89.70	94.5324	17.3310	-2.523
7.278	89.79	94.5289	17.3304	-2.491
7.287	89.87	94.5255	17.3297	-2.459
7.295	89.96	94.5221	17.3291	-2.426
7.303	90.05	94.5186	17.3285	-2.394
7.312	90.13	94.5152	17.3278	-2.362
7.320	90.22	94.5119	17.3272	-2.330
7.328	90.31	94.5085	17.3266	-2.298
7.337	90.40	94.5051	17.3260	-2.267
7.345	90.49	94.5018	17.3254	-2.235
7.353	90.57	94.4984	17.3248	-2.204
7.362	90.66	94.4951	17.3242	-2.172
7.370	90.75	94.4918	17.3235	-2.140
7.378	90.83	94.4885	17.3229	-2.109
7.387	90.92	94.4852	17.3223	-2.077
7.395	91.01	94.4819	17.3217	-2.046
7.403	91.10	94.4787	17.3211	-2.014
7.412	91.18	94.4754	17.3205	-1.983
7.420	91.27	94.4722	17.3199	-1.951
7.428	91.36	94.4689	17.3194	-1.920
7.437	91.44	94.4657	17.3188	-1.889
7.445	91.53	94.4625	17.3182	-1.858
7.453	91.62	94.4593	17.3176	-1.827
7.462	91.71	94.4562	17.3170	-1.795
7.470	91.79	94.4530	17.3164	-1.764
7.478	91.88	94.4499	17.3159	-1.733
7.487	91.97	94.4467	17.3153	-1.703
7.495	92.05	94.4436	17.3147	-1.671
7.503	92.14	94.4405	17.3141	-1.640
7.512	92.23	94.4374	17.3136	-1.610
7.520	92.32	94.4344	17.3130	-1.579
7.528	92.40	94.4313	17.3125	-1.548
7.537	92.49	94.4282	17.3119	-1.518
7.545	92.58	94.4252	17.3113	-1.488
7.553	92.66	94.4222	17.3108	-1.458
7.562	92.75	94.4191	17.3102	-1.428
7.570	92.84	94.4161	17.3097	-1.397
7.578	92.92	94.4131	17.3091	-1.367
7.587	93.01	94.4102	17.3086	-1.336
7.595	93.10	94.4072	17.3080	-1.306
7.603	93.19	94.4042	17.3075	-1.276
7.612	93.27	94.4013	17.3070	-1.245
7.620	93.36	94.3984	17.3064	-1.214
7.628	93.45	94.3954	17.3059	-1.183
7.637	93.53	94.3926	17.3054	-1.152
7.645	93.62	94.3897	17.3048	-1.121
7.653	93.71	94.3868	17.3043	-1.090
7.662	93.80	94.3839	17.3038	-1.060
7.670	93.88	94.3811	17.3032	-1.030
7.678	93.97	94.3782	17.3027	-0.999
7.687	94.06	94.3754	17.3022	-0.969
7.695	94.15	94.3726	17.3017	-0.939
7.703	94.23	94.3698	17.3012	-0.908
7.712	94.32	94.3669	17.3007	-0.879
7.720	94.41	94.3642	17.3001	-0.849
7.728	94.49	94.3614	17.2996	-0.819
7.737	94.58	94.3586	17.2991	-0.789
7.745	94.67	94.3558	17.2986	-0.759
7.753	94.75	94.3531	17.2981	-0.729
7.762	94.84	94.3504	17.2976	-0.699
7.770	94.93	94.3476	17.2971	-0.669
7.778	95.01	94.3449	17.2966	-0.640
7.787	95.10	94.3422	17.2961	-0.610
7.795	95.19	94.3396	17.2956	-0.580
7.803	95.28	94.3369	17.2951	-0.550
7.812	95.36	94.3342	17.2947	-0.520
7.820	95.45	94.3316	17.2942	-0.491
7.828	95.54	94.3289	17.2937	-0.461
7.837	95.63	94.3263	17.2932	-0.431
7.845	95.71	94.3237	17.2927	-0.401
7.853	95.80	94.3211	17.2922	-0.372
7.862	95.89	94.3185	17.2918	-0.343
7.870	95.98	94.3158	17.2913	-0.314
7.878	96.06	94.3133	17.2908	-0.286
7.887	96.15	94.3107	17.2903	-0.256
7.895	96.24	94.3082	17.2899	-0.227
7.903	96.32	94.3056	17.2894	-0.198
7.912	96.41	94.3031	17.2890	-0.169
7.920	96.50	94.3006	17.2885	-0.139
7.928	96.58	94.2981	17.2880	-0.110
7.937	96.67	94.2956	17.2876	-0.082
7.945	96.76	94.2931	17.2871	-0.052
7.953	96.84	94.2906	17.2867	-0.023
7.962	96.93	94.2882	17.2862	0.006
7.970	97.02	94.2857	17.2858	0.034
7.978	97.11	94.2833	17.2853	0.062
7.987	97.19	94.2808	17.2849	0.091
7.995	97.28	94.2784	17.2844	0.119
8.003	97.37	94.2760	17.2840	0.147
8.012	97.45	94.2736	17.2835	0.176
8.020	97.54	94.2712	17.2831	0.205
8.028	97.63	94.2689	17.2827	0.233
8.037	97.71	94.2665	17.2822	0.262
8.045	97.80	94.2641	17.2818	0.291
8.053	97.89	94.2618	17.2814	0.319
8.062	97.97	94.2595	17.2810	0.348
8.070	98.06	94.2572	17.2805	0.377
8.078	98.15	94.2548	17.2801	0.405
8.087	98.23	94.2525	17.2797	0.434
8.095	98.32	94.2503	17.2793	0.463
8.103	98.41	94.2480	17.2789	0.491
8.112	98.50	94.2457	17.2784	0.519
8.120	98.58	94.2435	17.2780	0.547
8.128	98.67	94.2412	17.2776	0.575
8.137	98.76	94.2390	17.2772	0.603
8.145	98.84	94.2368	17.2768	0.631
8.153	98.93	94.2346	17.2764	0.659
8.162	99.02	94.2324	17.2760	0.687
8.170	99.10	94.2302	17.2756	0.715
8.178	99.19	94.2280	17.2752	0.742
8.187	99.28	94.2258	17.2748	0.770
8.195	99.37	94.2237	17.2744	0.799
8.203	99.45	94.2215	17.2740	0.827
8.212	99.54	94.2194	17.2736	0.855
8.220	99.63	94.2172	17.2732	0.883
8.228	99.71	94.2151	17.2728	0.910
8.237	99.80	94.2130	17.2724	0.937
8.245	99.89	94.2109	17.2720	0.965
8.253	99.97	94.2088	17.2717	0.992
8.262	100.06	94.2067	17.2713	1.019
8.270	100.15	94.2046	17.2709	1.047
8.278	100.23	94.2025	17.2705	1.073
8.287	100.32	94.2005	17.2701	1.100
8.295	100.41	94.1984	17.2698	1.126
8.303	100.49	94.1964	17.2694	1.153
8.312	100.58	94.1944	17.2690	1.180
8.320	100.67	94.1923	17.2686	1.207
8.328	100.75	94.1903	17.2683	1.235
8.337	100.84	94.1883	17.2679	1.262
8.345	100.93	94.1863	17.2675	1.289
8.353	101.01	94.1843	17.2672	1.316
8.362	101.10	94.1824	17.2668	1.343
8.370	101.19	94.1804	17.2665	1.370
8.378	101.28	94.1785	17.2661	1.397
8.387	101.36	94.1765	17.2657	1.424
8.395	101.45	94.1746	17.2654	1.451
8.403	101.54	94.1726	17.2650	1.478
8.412	101.62	94.1707	17.2647	1.504
8.420	101.71	94.1688	17.2643	1.531
8.428	101.80	94.1669	17.2640	1.558
8.437	101.88	94.1650	17.2636	1.585
8.445	101.97	94.1632	17.2633	1.612
8.453	102.06	94.1613	17.2630	1.639
8.462	102.14	94.1594	17.2626	1.666
8.470	102.23	94.1576	17.2623	1.692
8.478	102.32	94.1557	17.2619	1.720
8.487	102.40	94.1539	17.2616	1.746
8.495	102.49	94.1521	17.2613	1.773
8.503	102.58	94.1503	17.2609	1.799
8.512	102.67	94.1485	17.2606	1.825
8.520	102.75	94.1467	17.2603	1.850
8.528	102.84	94.1449	17.2599	1.875
8.537	102.93	94.1431	17.2596	1.901
8.545	103.01	94.1413	17.2593	1.926
8.553	103.10	94.1396	17.2590	1.951
8.562	103.19	94.1378	17.2586	1.977
8.570	103.27	94.1361	17.2583	2.002
8.578	103.36	94.1343	17.2580	2.027
8.587	103.44	94.1326	17.2577	2.053
8.595	103.53	94.1309	17.2574	2.080
8.603	103.62	94.1292	17.2571	2.106
8.612	103.70	94.1275	17.2568	2.132
8.620	103.79	94.1258	17.2564	2.158
8.628	103.88	94.1241	17.2561	2.184
8.637	103.96	94.1224	17.2558	2.210
8.645	104.05	94.1207	17.2555	2.237
8.653	104.14	94.1191	17.2552	2.262
8.662	104.22	94.1175	17.2549	2.288
8.670	104.31	94.1158	17.2546	2.314
8.678	104.40	94.1142	17.2543	2.338
8.687	104.49	94.1126	17.2540	2.363
8.695	104.57	94.1109	17.2537	2.388
8.703	104.66	94.1093	17.2534	2.414
8.712	104.75	94.1077	17.2531	2.439
8.720	104.83	94.1062	17.2528	2.464
8.728	104.92	94.1046	17.2526	2.488
8.737	105.01	94.1030	17.2523	2.514
8.745	105.09	94.1014	17.2520	2.540
8.753	105.18	94.0999	17.2517	2.564
8.762	105.27	94.0983	17.2514	2.589
8.770	105.35	94.0968	17.2511	2.615
8.778	105.44	94.0952	17.2508	2.640
8.787	105.53	94.0937	17.2506	2.665
8.795	105.61	94.0922	17.2503	2.690
8.803	105.70	94.0907	17.2500	2.715

[step]
Isothermal 30.0 min
Time	Temperature	Weight	Weight	Heat Flow
min	°C	%	mg	mW
8.812	105.79	94.0892	17.2497	2.740
8.837	106.05	94.0847	17.2489	2.813
8.862	106.31	94.0803	17.2481	2.886
8.887	106.56	94.0760	17.2473	2.961
8.912	106.82	94.0717	17.2465	3.037
8.937	107.08	94.0675	17.2458	3.114
8.962	107.33	94.0634	17.2450	3.194
8.987	107.59	94.0593	17.2443	3.275
9.012	107.83	94.0553	17.2435	3.358
9.037	108.08	94.0513	17.2428	3.444
9.062	108.32	94.0474	17.2421	3.533
9.087	108.56	94.0436	17.2414	3.625
9.112	108.79	94.0398	17.2407	3.722
9.137	109.02	94.0361	17.2400	3.821
9.162	109.25	94.0325	17.2393	3.922
9.187	109.46	94.0289	17.2387	4.025
9.212	109.68	94.0254	17.2380	4.129
9.237	109.88	94.0219	17.2374	4.240
9.262	110.09	94.0185	17.2368	4.350
9.287	110.28	94.0152	17.2362	4.464
9.312	110.47	94.0119	17.2356	4.579
9.337	110.66	94.0087	17.2350	4.695
9.362	110.84	94.0056	17.2344	4.813
9.387	111.01	94.0025	17.2338	4.933
9.412	111.17	93.9995	17.2333	5.054
9.437	111.33	93.9965	17.2327	5.175
9.462	111.48	93.9936	17.2322	5.299
9.487	111.63	93.9908	17.2317	5.422
9.512	111.77	93.9880	17.2312	5.548
9.537	111.90	93.9853	17.2307	5.674
9.562	112.03	93.9826	17.2302	5.803
9.587	112.15	93.9799	17.2297	5.932
9.612	112.26	93.9774	17.2292	6.061
9.637	112.36	93.9748	17.2288	6.190
9.662	112.46	93.9724	17.2283	6.319
9.687	112.55	93.9699	17.2279	6.448
9.712	112.63	93.9675	17.2274	6.576
9.737	112.71	93.9652	17.2270	6.704
9.762	112.78	93.9629	17.2266	6.829
9.787	112.84	93.9606	17.2262	6.955
9.812	112.90	93.9584	17.2258	7.077
9.837	112.95	93.9563	17.2254	7.199
9.862	113.00	93.9542	17.2250	7.317
9.887	113.04	93.9521	17.2246	7.433
9.912	113.08	93.9501	17.2242	7.544
9.937	113.11	93.9481	17.2239	7.654
9.962	113.13	93.9463	17.2235	7.761
9.987	113.15	93.9444	17.2232	7.869
10.012	113.17	93.9426	17.2229	7.974
10.037	113.18	93.9408	17.2225	8.079
10.062	113.19	93.9391	17.2222	8.177
10.087	113.19	93.9374	17.2219	8.273
10.112	113.19	93.9358	17.2216	8.364
10.137	113.19	93.9342	17.2213	8.456
10.162	113.18	93.9326	17.2210	8.545
10.187	113.17	93.9311	17.2207	8.632
10.212	113.15	93.9296	17.2205	8.714
10.237	113.13	93.9281	17.2202	8.792
10.262	113.11	93.9266	17.2199	8.866
10.287	113.09	93.9252	17.2197	8.936
10.312	113.07	93.9238	17.2194	9.003
10.337	113.04	93.9225	17.2192	9.067
10.362	113.02	93.9212	17.2189	9.126
10.387	112.99	93.9200	17.2187	9.179
[...]
217.570	950.03	-0.4165	-0.0764	49.483
217.595	950.03	-0.4166	-0.0764	49.484
217.620	950.02	-0.4166	-0.0764	49.485
217.645	950.02	-0.4167	-0.0764	49.486
217.670	950.02	-0.4168	-0.0764	49.486
217.695	950.03	-0.4168	-0.0764	49.485
217.720	950.02	-0.4169	-0.0764	49.484
217.745	950.03	-0.4169	-0.0764	49.484
217.770	950.02	-0.4170	-0.0764	49.484
217.795	950.02	-0.4170	-0.0765	49.483
217.820	950.02	-0.4171	-0.0765	49.481
217.845	950.02	-0.4172	-0.0765	49.480
217.870	950.02	-0.4172	-0.0765	49.480
217.895	950.02	-0.4173	-0.0765	49.480
217.920	950.02	-0.4173	-0.0765	49.480
217.945	950.02	-0.4174	-0.0765	49.480
217.970	950.02	-0.4174	-0.0765	49.480
217.995	950.02	-0.4175	-0.0765	49.479
218.020	950.02	-0.4176	-0.0766	49.479
218.045	950.02	-0.4176	-0.0766	49.479
218.070	950.02	-0.4177	-0.0766	49.479
218.095	950.02	-0.4177	-0.0766	49.477
218.120	950.02	-0.4178	-0.0766	49.474
218.145	950.02	-0.4178	-0.0766	49.473
218.170	950.02	-0.4179	-0.0766	49.472
218.195	950.02	-0.4179	-0.0766	49.473
218.220	950.02	-0.4180	-0.0766	49.475
218.245	950.02	-0.4181	-0.0766	49.476
218.270	950.02	-0.4181	-0.0767	49.476
218.295	950.02	-0.4182	-0.0767	49.476
218.320	950.02	-0.4182	-0.0767	49.476
218.345	950.02	-0.4183	-0.0767	49.476
218.370	950.02	-0.4184	-0.0767	49.476
218.395	950.02	-0.4184	-0.0767	49.475
218.420	950.02	-0.4185	-0.0767	49.474
218.445	950.02	-0.4185	-0.0767	49.474
218.470	950.02	-0.4186	-0.0767	49.473
218.495	950.02	-0.4187	-0.0768	49.472
218.520	950.02	-0.4187	-0.0768	49.471
218.545	950.02	-0.4188	-0.0768	49.469
218.570	950.02	-0.4188	-0.0768	49.467
218.595	950.02	-0.4189	-0.0768	49.468
218.620	950.02	-0.4190	-0.0768	49.469
218.645	950.02	-0.4190	-0.0768	49.471
218.670	950.02	-0.4191	-0.0768	49.473
218.695	950.02	-0.4191	-0.0768	49.474
218.720	950.02	-0.4192	-0.0769	49.477
218.745	950.02	-0.4192	-0.0769	49.479
218.770	950.02	-0.4193	-0.0769	49.482
218.795	950.02	-0.4193	-0.0769	49.484
218.820	950.02	-0.4194	-0.0769	49.487
218.845	950.02	-0.4194	-0.0769	49.490
218.870	950.02	-0.4195	-0.0769	49.491
218.895	950.02	-0.4195	-0.0769	49.492
218.920	950.02	-0.4196	-0.0769	49.492
218.945	950.02	-0.4197	-0.0769	49.492
218.970	950.02	-0.4197	-0.0770	49.493
218.995	950.02	-0.4198	-0.0770	49.493
219.020	950.02	-0.4199	-0.0770	49.493
219.045	950.02	-0.4199	-0.0770	49.493
219.070	950.02	-0.4200	-0.0770	49.493
219.095	950.02	-0.4200	-0.0770	49.493
219.120	950.02	-0.4201	-0.0770	49.493
219.145	950.02	-0.4201	-0.0770	49.493
219.170	950.02	-0.4201	-0.0770	49.495
219.195	950.02	-0.4202	-0.0770	49.496
219.220	950.02	-0.4202	-0.0770	49.496
219.245	950.02	-0.4202	-0.0770	49.496
219.270	950.02	-0.4202	-0.0770	49.497
219.295	950.02	-0.4202	-0.0770	49.499
219.320	950.02	-0.4203	-0.0771	49.500
219.345	950.02	-0.4203	-0.0771	49.499
219.370	950.02	-0.4204	-0.0771	49.498
219.395	950.02	-0.4204	-0.0771	49.497
219.420	950.02	-0.4205	-0.0771	49.497
219.445	950.02	-0.4205	-0.0771	49.497
219.470	950.02	-0.4206	-0.0771	49.498
219.495	950.02	-0.4206	-0.0771	49.500
219.520	950.02	-0.4207	-0.0771	49.503
219.545	950.02	-0.4207	-0.0771	49.508
219.570	950.02	-0.4208	-0.0771	49.511
219.595	950.02	-0.4208	-0.0771	49.515
219.620	950.02	-0.4209	-0.0772	49.518
219.645	950.02	-0.4209	-0.0772	49.521
219.670	950.02	-0.4209	-0.0772	49.524
219.695	950.02	-0.4210	-0.0772	49.525
219.720	950.02	-0.4210	-0.0772	49.526
219.745	950.02	-0.4211	-0.0772	49.526
219.770	950.02	-0.4211	-0.0772	49.527
219.795	950.02	-0.4212	-0.0772	49.528
219.820	950.02	-0.4212	-0.0772	49.528
219.845	950.02	-0.4213	-0.0772	49.526
219.870	950.02	-0.4213	-0.0772	49.525
219.895	950.02	-0.4213	-0.0772	49.524
219.920	950.02	-0.4214	-0.0773	49.524
219.945	950.02	-0.4214	-0.0773	49.525
219.970	950.02	-0.4215	-0.0773	49.525
219.995	950.02	-0.4215	-0.0773	49.525
220.020	950.02	-0.4216	-0.0773	49.525
220.045	950.02	-0.4217	-0.0773	49.525
220.070	950.02	-0.4218	-0.0773	49.524
220.095	950.02	-0.4218	-0.0773	49.522
220.120	950.02	-0.4219	-0.0773	49.522
220.145	950.02	-0.4219	-0.0774	49.521
220.170	950.02	-0.4220	-0.0774	49.522
220.195	950.02	-0.4220	-0.0774	49.522
220.220	950.02	-0.4221	-0.0774	49.523
220.245	950.02	-0.4221	-0.0774	49.524
220.270	950.02	-0.4222	-0.0774	49.526
220.295	950.02	-0.4222	-0.0774	49.528
220.320	950.02	-0.4223	-0.0774	49.529
220.345	950.02	-0.4223	-0.0774	49.531
220.370	950.02	-0.4224	-0.0774	49.533
220.395	950.02	-0.4224	-0.0774	49.537
220.420	950.02	-0.4225	-0.0775	49.541
220.445	950.02	-0.4225	-0.0775	49.544
220.470	950.02	-0.4226	-0.0775	49.545
220.495	950.02	-0.4226	-0.0775	49.545
220.520	950.02	-0.4227	-0.0775	49.545
220.545	950.02	-0.4227	-0.0775	49.545
220.570	950.02	-0.4228	-0.0775	49.545
220.595	950.02	-0.4228	-0.0775	49.546
220.620	950.02	-0.4228	-0.0775	49.547
220.645	950.02	-0.4229	-0.0775	49.548
220.670	950.02	-0.4229	-0.0775	49.549
220.695	950.02	-0.4230	-0.0775	49.550
220.720	950.02	-0.4230	-0.0776	49.551
220.745	950.02	-0.4231	-0.0776	49.553
220.770	950.02	-0.4232	-0.0776	49.553
220.795	950.02	-0.4232	-0.0776	49.554
220.820	950.02	-0.4233	-0.0776	49.555
220.845	950.02	-0.4233	-0.0776	49.555
220.870	950.02	-0.4234	-0.0776	49.556
220.895	950.02	-0.4234	-0.0776	49.558
220.920	950.02	-0.4235	-0.0776	49.561
220.945	950.02	-0.4236	-0.0777	49.563
220.970	950.02	-0.4236	-0.0777	49.566
220.995	950.02	-0.4237	-0.0777	49.567
221.020	950.02	-0.4237	-0.0777	49.570
221.045	950.02	-0.4237	-0.0777	49.572
221.070	950.02	-0.4238	-0.0777	49.574
221.095	950.02	-0.4238	-0.0777	49.576
221.120	950.02	-0.4239	-0.0777	49.576
221.145	950.02	-0.4239	-0.0777	49.576
221.170	950.02	-0.4240	-0.0777	49.576
221.195	950.02	-0.4240	-0.0777	49.575
221.220	950.02	-0.4241	-0.0777	49.575
221.245	950.02	-0.4241	-0.0778	49.577
221.270	950.02	-0.4242	-0.0778	49.578
221.295	950.02	-0.4243	-0.0778	49.579
221.320	950.02	-0.4243	-0.0778	49.579
221.345	950.02	-0.4244	-0.0778	49.581
221.370	950.02	-0.4245	-0.0778	49.583
221.395	950.02	-0.4245	-0.0778	49.585
221.420	950.02	-0.4246	-0.0778	49.587
221.445	950.02	-0.4246	-0.0778	49.589
221.470	950.02	-0.4247	-0.0779	49.592
221.495	950.02	-0.4247	-0.0779	49.596
221.520	950.02	-0.4248	-0.0779	49.599
221.545	950.02	-0.4249	-0.0779	49.600
221.570	950.02	-0.4249	-0.0779	49.601
221.595	950.02	-0.4250	-0.0779	49.602
221.620	950.02	-0.4251	-0.0779	49.603
221.645	950.02	-0.4251	-0.0779	49.605
221.670	950.02	-0.4252	-0.0780	49.607
221.695	950.02	-0.4253	-0.0780	49.608
221.720	950.02	-0.4253	-0.0780	49.609
221.745	950.02	-0.4254	-0.0780	49.609
221.770	950.02	-0.4254	-0.0780	49.609
221.795	950.02	-0.4254	-0.0780	49.610
221.820	950.02	-0.4255	-0.0780	49.611
221.845	950.02	-0.4255	-0.0780	49.612
221.870	950.02	-0.4256	-0.0780	49.616
221.895	950.02	-0.4256	-0.0780	49.619
221.920	950.02	-0.4256	-0.0780	49.621
221.945	950.02	-0.4257	-0.0780	49.622
221.970	950.02	-0.4257	-0.0780	49.621
221.995	950.02	-0.4257	-0.0781	49.620
222.020	950.02	-0.4258	-0.0781	49.619
222.045	950.02	-0.4258	-0.0781	49.617
222.070	950.02	-0.4258	-0.0781	49.615
222.095	950.02	-0.4259	-0.0781	49.614
222.120	950.02	-0.4259	-0.0781	49.614
222.145	950.02	-0.4260	-0.0781	49.613
222.170	950.02	-0.4260	-0.0781	49.613
222.195	950.02	-0.4261	-0.0781	49.613
222.220	950.02	-0.4261	-0.0781	49.613
222.245	950.02	-0.4262	-0.0781	49.614
222.270	950.02	-0.4263	-0.0781	49.615
222.295	950.02	-0.4263	-0.0782	49.615
222.320	950.02	-0.4263	-0.0782	49.616
222.345	950.02	-0.4264	-0.0782	49.616
222.370	950.02	-0.4264	-0.0782	49.616
222.395	950.02	-0.4265	-0.0782	49.617
222.420	950.02	-0.4265	-0.0782	49.617
222.445	950.02	-0.4265	-0.0782	49.618
222.470	950.02	-0.4266	-0.0782	49.619
222.495	950.02	-0.4267	-0.0782	49.620
222.520	950.02	-0.4267	-0.0782	49.619
222.545	950.02	-0.4268	-0.0782	49.618
222.570	950.02	-0.4268	-0.0783	49.617
222.595	950.02	-0.4269	-0.0783	49.617
222.620	950.02	-0.4269	-0.0783	49.618
222.645	950.02	-0.4269	-0.0783	49.618
222.670	950.02	-0.4270	-0.0783	49.617
222.695	950.02	-0.4270	-0.0783	49.616
222.720	950.02	-0.4271	-0.0783	49.614
222.745	950.02	-0.4271	-0.0783	49.614
222.770	950.02	-0.4272	-0.0783	49.614
222.795	950.02	-0.4272	-0.0783	49.615
222.820	950.02	-0.4273	-0.0783	49.616
222.845	950.02	-0.4273	-0.0783	49.617
222.870	950.02	-0.4274	-0.0783	49.617
222.895	950.02	-0.4274	-0.0784	49.618
222.920	950.02	-0.4274	-0.0784	49.620
222.945	950.02	-0.4275	-0.0784	49.621
222.970	950.02	-0.4275	-0.0784	49.622
222.995	950.02	-0.4276	-0.0784	49.624
223.020	950.02	-0.4276	-0.0784	49.625
223.045	950.02	-0.4277	-0.0784	49.625
223.070	950.02	-0.4278	-0.0784	49.625
223.095	950.02	-0.4279	-0.0784	49.626
223.120	950.02	-0.4279	-0.0785	49.626
223.145	950.02	-0.4280	-0.0785	49.626
223.170	950.02	-0.4281	-0.0785	49.625
223.195	950.02	-0.4281	-0.0785	49.625
223.220	950.02	-0.4282	-0.0785	49.625
223.245	950.02	-0.4282	-0.0785	49.627
223.270	950.02	-0.4282	-0.0785	49.627
223.295	950.02	-0.4283	-0.0785	49.628
223.320	950.02	-0.4283	-0.0785	49.629
223.345	950.02	-0.4283	-0.0785	49.630
223.370	950.02	-0.4284	-0.0785	49.630
223.395	950.02	-0.4284	-0.0785	49.629
223.420	950.02	-0.4284	-0.0785	49.630
223.445	950.02	-0.4285	-0.0786	49.631
223.470	950.02	-0.4285	-0.0786	49.633
223.495	950.02	-0.4285	-0.0786	49.633
223.520	950.02	-0.4286	-0.0786	49.633
223.545	950.02	-0.4286	-0.0786	49.632
223.570	950.02	-0.4287	-0.0786	49.631
223.595	950.02	-0.4287	-0.0786	49.630
223.620	950.02	-0.4288	-0.0786	49.630
223.645	950.02	-0.4288	-0.0786	49.629
223.670	950.02	-0.4289	-0.0786	49.629
223.695	950.02	-0.4289	-0.0786	49.630
223.720	950.02	-0.4290	-0.0786	49.630
223.745	950.02	-0.4290	-0.0787	49.629
223.770	950.02	-0.4291	-0.0787	49.627
223.795	950.02	-0.4291	-0.0787	49.627
223.820	950.02	-0.4292	-0.0787	49.628
223.845	950.02	-0.4292	-0.0787	49.629
223.870	950.02	-0.4293	-0.0787	49.630
223.895	950.02	-0.4294	-0.0787	49.630
223.920	950.02	-0.4294	-0.0787	49.629
223.945	950.02	-0.4295	-0.0787	49.628
223.970	950.02	-0.4295	-0.0787	49.627
223.995	950.02	-0.4296	-0.0788	49.626
224.020	950.02	-0.4296	-0.0788	49.626
224.045	950.02	-0.4297	-0.0788	49.627
224.070	950.02	-0.4298	-0.0788	49.628
224.095	950.02	-0.4298	-0.0788	49.630
224.120	950.02	-0.4299	-0.0788	49.632
224.145	950.02	-0.4300	-0.0788	49.633
224.170	950.02	-0.4300	-0.0788	49.635
224.195	950.02	-0.4301	-0.0788	49.637
224.220	950.02	-0.4301	-0.0788	49.640
224.245	950.02	-0.4301	-0.0789	49.642
224.270	950.02	-0.4301	-0.0789	49.645
224.295	950.02	-0.4302	-0.0789	49.648
224.320	950.02	-0.4303	-0.0789	49.650
224.345	950.02	-0.4303	-0.0789	49.652
224.370	950.02	-0.4304	-0.0789	49.654
224.395	950.02	-0.4304	-0.0789	49.656
224.420	950.02	-0.4305	-0.0789	49.658
224.445	950.02	-0.4305	-0.0789	49.659
224.470	950.02	-0.4306	-0.0789	49.659
224.495	950.02	-0.4306	-0.0790	49.660
224.520	950.02	-0.4307	-0.0790	49.661
224.545	950.02	-0.4307	-0.0790	49.664
224.570	950.02	-0.4308	-0.0790	49.666
224.595	950.02	-0.4309	-0.0790	49.668
224.620	950.02	-0.4309	-0.0790	49.670
224.645	950.02	-0.4310	-0.0790	49.671
224.670	950.02	-0.4310	-0.0790	49.673
224.695	950.02	-0.4311	-0.0790	49.673
224.720	950.02	-0.4311	-0.0790	49.674
224.745	950.02	-0.4312	-0.0791	49.673
224.770	950.02	-0.4312	-0.0791	49.673
224.795	950.02	-0.4313	-0.0791	49.673
224.820	950.02	-0.4313	-0.0791	49.674
224.845	950.02	-0.4314	-0.0791	49.676
224.870	950.02	-0.4314	-0.0791	49.679
224.895	950.02	-0.4315	-0.0791	49.681
224.920	950.02	-0.4315	-0.0791	49.681
224.945	950.02	-0.4316	-0.0791	49.681
224.970	950.02	-0.4316	-0.0791	49.680
224.995	950.02	-0.4317	-0.0791	49.681
225.020	950.02	-0.4317	-0.0791	49.682
225.045	950.02	-0.4318	-0.0792	49.682
225.070	950.02	-0.4319	-0.0792	49.683
225.095	950.02	-0.4319	-0.0792	49.684
225.120	950.02	-0.4320	-0.0792	49.685
225.145	950.02	-0.4320	-0.0792	49.686
225.170	950.02	-0.4321	-0.0792	49.686
225.195	950.02	-0.4321	-0.0792	49.686
225.220	950.02	-0.4321	-0.0792	49.686
225.245	950.02	-0.4322	-0.0792	49.685
225.270	950.02	-0.4322	-0.0792	49.683
225.295	950.02	-0.4323	-0.0792	49.681
225.320	950.02	-0.4323	-0.0793	49.679
225.345	950.02	-0.4323	-0.0793	49.678
225.370	950.02	-0.4324	-0.0793	49.679
225.395	950.02	-0.4324	-0.0793	49.679
225.420	950.02	-0.4325	-0.0793	49.680
225.445	950.02	-0.4325	-0.0793	49.681
225.470	950.02	-0.4326	-0.0793	49.683
225.495	950.02	-0.4327	-0.0793	49.686
225.520	950.02	-0.4327	-0.0793	49.687
225.545	950.02	-0.4328	-0.0793	49.689
225.570	950.02	-0.4328	-0.0794	49.690
225.595	950.02	-0.4329	-0.0794	49.692
225.620	950.02	-0.4329	-0.0794	49.694
225.645	950.02	-0.4330	-0.0794	49.696
225.670	950.02	-0.4330	-0.0794	49.698
225.695	950.02	-0.4331	-0.0794	49.699
225.720	950.02	-0.4331	-0.0794	49.700
225.745	950.02	-0.4332	-0.0794	49.701
225.770	950.02	-0.4332	-0.0794	49.702
225.795	950.02	-0.4333	-0.0794	49.703
225.820	950.02	-0.4333	-0.0794	49.704
225.845	950.02	-0.4334	-0.0795	49.705
225.870	950.02	-0.4334	-0.0795	49.706
225.895	950.02	-0.4335	-0.0795	49.706
225.920	950.02	-0.4335	-0.0795	49.708
225.945	950.02	-0.4336	-0.0795	49.711
225.970	950.02	-0.4336	-0.0795	49.713
225.995	950.02	-0.4337	-0.0795	49.715
226.020	950.02	-0.4338	-0.0795	49.717
226.045	950.02	-0.4338	-0.0795	49.718
226.070	950.02	-0.4339	-0.0795	49.719
226.095	950.02	-0.4339	-0.0796	49.720
226.120	950.02	-0.4340	-0.0796	49.722
226.145	950.02	-0.4340	-0.0796	49.723
226.170	950.02	-0.4341	-0.0796	49.726
226.195	950.02	-0.4341	-0.0796	49.730
226.220	950.02	-0.4342	-0.0796	49.735
226.245	950.02	-0.4343	-0.0796	49.739
226.270	950.02	-0.4343	-0.0796	49.740
226.295	950.02	-0.4344	-0.0796	49.742
226.320	950.02	-0.4344	-0.0796	49.743
226.345	950.02	-0.4345	-0.0797	49.745
226.370	950.02	-0.4346	-0.0797	49.746
226.395	950.02	-0.4346	-0.0797	49.748
226.420	950.02	-0.4346	-0.0797	49.750
226.445	950.02	-0.4347	-0.0797	49.750
226.470	950.02	-0.4347	-0.0797	49.750
226.495	950.02	-0.4348	-0.0797	49.749
226.520	950.02	-0.4349	-0.0797	49.748
226.545	950.02	-0.4349	-0.0797	49.746
226.570	950.02	-0.4350	-0.0797	49.745
226.595	950.02	-0.4351	-0.0798	49.743
226.620	950.02	-0.4351	-0.0798	49.742
226.645	950.02	-0.4352	-0.0798	49.742
226.670	950.02	-0.4352	-0.0798	49.742
226.695	950.02	-0.4353	-0.0798	49.742
226.720	950.02	-0.4353	-0.0798	49.742
226.745	950.02	-0.4354	-0.0798	49.742
226.770	950.02	-0.4354	-0.0798	49.743
226.795	950.02	-0.4355	-0.0798	49.745
226.820	950.02	-0.4355	-0.0798	49.747
226.845	950.02	-0.4355	-0.0799	49.749
226.870	950.02	-0.4356	-0.0799	49.750
226.895	950.02	-0.4356	-0.0799	49.750
226.920	950.02	-0.4357	-0.0799	49.751
226.945	950.02	-0.4357	-0.0799	49.752
226.970	950.02	-0.4358	-0.0799	49.754
226.995	950.02	-0.4359	-0.0799	49.756
227.020	950.02	-0.4359	-0.0799	49.757
227.045	950.02	-0.4360	-0.0799	49.759
227.070	950.02	-0.4361	-0.0799	49.761
227.095	950.02	-0.4361	-0.0800	49.764
227.120	950.02	-0.4362	-0.0800	49.766
227.145	950.02	-0.4362	-0.0800	49.768
227.170	950.02	-0.4363	-0.0800	49.770
227.195	950.02	-0.4364	-0.0800	49.773
227.220	950.02	-0.4365	-0.0800	49.777
227.245	950.02	-0.4365	-0.0800	49.781
227.270	950.02	-0.4366	-0.0800	49.783
227.295	950.02	-0.4366	-0.0800	49.783
227.320	950.02	-0.4367	-0.0801	49.783
227.345	950.02	-0.4367	-0.0801	49.784
227.370	950.02	-0.4367	-0.0801	49.786
227.395	950.02	-0.4367	-0.0801	49.789
227.420	950.02	-0.4368	-0.0801	49.791
227.445	950.02	-0.4368	-0.0801	49.792
227.470	950.02	-0.4369	-0.0801	49.793
227.495	950.02	-0.4369	-0.0801	49.795
227.520	950.02	-0.4370	-0.0801	49.797
227.545	950.02	-0.4370	-0.0801	49.798
227.570	950.02	-0.4370	-0.0801	49.798
227.595	950.02	-0.4370	-0.0801	49.798
227.620	950.02	-0.4371	-0.0801	49.800
227.645	950.02	-0.4371	-0.0801	49.803
227.670	950.02	-0.4372	-0.0801	49.805
227.695	950.02	-0.4372	-0.0802	49.807
227.720	950.02	-0.4373	-0.0802	49.809
227.745	950.02	-0.4373	-0.0802	49.810
227.770	950.02	-0.4374	-0.0802	49.812
227.795	950.02	-0.4374	-0.0802	49.813
227.820	950.02	-0.4375	-0.0802	49.813
227.845	950.02	-0.4375	-0.0802	49.813
227.870	950.02	-0.4375	-0.0802	49.814
227.895	950.02	-0.4376	-0.0802	49.817
227.920	950.02	-0.4376	-0.0802	49.820
227.945	950.02	-0.4377	-0.0802	49.823
227.970	950.02	-0.4378	-0.0803	49.825
227.995	950.02	-0.4378	-0.0803	49.826
228.020	950.02	-0.4379	-0.0803	49.826
228.045	950.02	-0.4379	-0.0803	49.826
228.070	950.02	-0.4380	-0.0803	49.826
228.095	950.02	-0.4380	-0.0803	49.828
228.120	950.02	-0.4381	-0.0803	49.830
228.145	950.02	-0.4381	-0.0803	49.831
228.170	950.02	-0.4382	-0.0803	49.831
228.195	950.02	-0.4383	-0.0803	49.831
228.220	950.02	-0.4383	-0.0804	49.832
228.245	950.02	-0.4384	-0.0804	49.833
228.270	950.02	-0.4385	-0.0804	49.834
228.295	950.02	-0.4386	-0.0804	49.836
228.320	950.02	-0.4387	-0.0804	49.839
228.345	950.02	-0.4387	-0.0804	49.842
228.370	950.02	-0.4388	-0.0804	49.846
228.395	950.02	-0.4388	-0.0804	49.850
228.420	950.02	-0.4388	-0.0805	49.852
228.445	950.02	-0.4389	-0.0805	49.854
228.470	950.02	-0.4389	-0.0805	49.856
228.495	950.02	-0.4390	-0.0805	49.858
228.520	950.02	-0.4390	-0.0805	49.861
228.545	950.02	-0.4391	-0.0805	49.862
228.570	950.02	-0.4391	-0.0805	49.864
228.595	950.02	-0.4392	-0.0805	49.865
228.620	950.02	-0.4392	-0.0805	49.866
228.645	950.02	-0.4393	-0.0805	49.867
228.670	950.02	-0.4393	-0.0805	49.866
228.695	950.02	-0.4394	-0.0806	49.865
228.720	950.02	-0.4394	-0.0806	49.865
228.745	950.02	-0.4395	-0.0806	49.865
228.770	950.02	-0.4395	-0.0806	49.866
228.795	950.02	-0.4396	-0.0806	49.866
228.820	950.02	-0.4396	-0.0806	49.866
228.845	950.02	-0.4397	-0.0806	49.866
228.870	950.02	-0.4398	-0.0806	49.866
228.895	950.02	-0.4398	-0.0806	49.867
228.920	950.02	-0.4399	-0.0806	49.870
228.945	950.02	-0.4399	-0.0807	49.874
228.970	950.02	-0.4400	-0.0807	49.878
228.995	950.02	-0.4400	-0.0807	49.881
229.020	950.02	-0.4400	-0.0807	49.883
229.045	950.02	-0.4400	-0.0807	49.885
229.070	950.02	-0.4401	-0.0807	49.886
229.095	950.02	-0.4401	-0.0807	49.887
229.120	950.02	-0.4401	-0.0807	49.887
229.145	950.02	-0.4401	-0.0807	49.888
229.170	950.02	-0.4402	-0.0807	49.888
229.195	950.02	-0.4402	-0.0807	49.888
229.220	950.02	-0.4403	-0.0807	49.888
229.245	950.02	-0.4404	-0.0807	49.887
229.270	950.02	-0.4404	-0.0807	49.887
229.295	950.02	-0.4404	-0.0807	49.888
229.320	950.02	-0.4405	-0.0808	49.889
229.345	950.02	-0.4405	-0.0808	49.891
229.370	950.02	-0.4405	-0.0808	49.891
229.395	950.02	-0.4405	-0.0808	49.891
229.420	950.02	-0.4406	-0.0808	49.892
229.445	950.02	-0.4406	-0.0808	49.892
229.470	950.02	-0.4407	-0.0808	49.894
229.495	950.02	-0.4408	-0.0808	49.896
229.520	950.02	-0.4408	-0.0808	49.898
229.545	950.02	-0.4408	-0.0808	49.899
229.570	950.02	-0.4409	-0.0808	49.899
229.595	950.02	-0.4409	-0.0808	49.900
229.620	950.02	-0.4410	-0.0808	49.902
229.645	950.02	-0.4410	-0.0809	49.903
229.670	950.02	-0.4411	-0.0809	49.904
229.695	950.02	-0.4412	-0.0809	49.903
229.720	950.02	-0.4412	-0.0809	49.904
229.745	950.02	-0.4413	-0.0809	49.905
229.770	950.02	-0.4413	-0.0809	49.907
229.795	950.02	-0.4414	-0.0809	49.908
229.820	950.02	-0.4414	-0.0809	49.909
229.845	950.02	-0.4415	-0.0809	49.911
229.870	950.02	-0.4415	-0.0809	49.914
229.895	950.02	-0.4416	-0.0810	49.917
229.920	950.02	-0.4416	-0.0810	49.921
229.945	950.02	-0.4417	-0.0810	49.924
229.970	950.02	-0.4417	-0.0810	49.925
229.995	950.02	-0.4418	-0.0810	49.926
230.020	950.02	-0.4418	-0.0810	49.927
230.045	950.02	-0.4418	-0.0810	49.928
230.070	950.02	-0.4419	-0.0810	49.930
230.095	950.02	-0.4419	-0.0810	49.932
230.120	950.02	-0.4420	-0.0810	49.934
230.145	950.02	-0.4420	-0.0810	49.936
230.170	950.02	-0.4421	-0.0811	49.939
230.195	950.02	-0.4422	-0.0811	49.942
230.220	950.02	-0.4422	-0.0811	49.946
230.245	950.02	-0.4423	-0.0811	49.950
230.270	950.02	-0.4424	-0.0811	49.953
230.295	950.02	-0.4424	-0.0811	49.955
230.320	950.02	-0.4424	-0.0811	49.958
230.345	950.02	-0.4425	-0.0811	49.960
230.370	950.02	-0.4425	-0.0811	49.961
230.395	950.02	-0.4426	-0.0811	49.962
230.420	950.02	-0.4426	-0.0811	49.963
230.445	950.02	-0.4426	-0.0812	49.963
230.470	950.02	-0.4427	-0.0812	49.964
230.495	950.02	-0.4427	-0.0812	49.963
230.520	950.02	-0.4428	-0.0812	49.963
230.545	950.02	-0.4428	-0.0812	49.963
230.570	950.02	-0.4429	-0.0812	49.964
230.595	950.02	-0.4429	-0.0812	49.967
230.620	950.02	-0.4430	-0.0812	49.971
230.645	950.02	-0.4431	-0.0812	49.977
230.670	950.02	-0.4431	-0.0812	49.981
230.695		-0.4432	-0.0812
230.712		-0.4432	-0.0813